"STUDYID","DOMAIN","USUBJID","DSSEQ","DSTERM","DSDECOD","DSCAT","VISITNUM","VISIT","DSDTC","DSSTDTC","DSSTDY"
"CDISCPILOT01","DS","CDISCPILOT01-701-1015",1,"Randomized",NA,"PROTOCOL MILESTONE",0,"Baseline","2014-01-02","2014-01-02",NA
"CDISCPILOT01","DS","CDISCPILOT01-701-1015",2,"Protocol Completed",NA,"DISPOSITION EVENT",26,"Week 26","2014-07-02","2014-07-02",NA
"CDISCPILOT01","DS","CDISCPILOT01-701-1015",3,"Final Lab Visit","Final Lab Visit",NA,26,"Week 26","2014-07-02T11:45","2014-07-02",NA
"CDISCPILOT01","DS","CDISCPILOT01-701-1023",1,"Randomized",NA,"PROTOCOL MILESTONE",0,"Baseline","2012-08-05","2012-08-05",NA
"CDISCPILOT01","DS","CDISCPILOT01-701-1023",2,"Adverse Event",NA,"DISPOSITION EVENT",4,"Week 4","2012-09-02","2012-09-02",NA
"CDISCPILOT01","DS","CDISCPILOT01-701-1023",3,"Final Lab Visit","Final Lab Visit",NA,4,"Week 4","2012-09-02T10:15","2012-09-02",NA
"CDISCPILOT01","DS","CDISCPILOT01-701-1023",4,"Final Retrieval Visit","Final Retrieval Visit",NA,NA,"Retrieval","2013-02-18","2013-02-18",NA
"CDISCPILOT01","DS","CDISCPILOT01-701-1028",1,"Randomized",NA,"PROTOCOL MILESTONE",0,"Baseline","2013-07-19","2013-07-19",NA
"CDISCPILOT01","DS","CDISCPILOT01-701-1028",2,"Protocol Completed",NA,"DISPOSITION EVENT",26,"Week 26","2014-01-14","2014-01-14",NA
"CDISCPILOT01","DS","CDISCPILOT01-701-1028",3,"Final Lab Visit","Final Lab Visit",NA,26,"Week 26","2014-01-14T11:10","2014-01-14",NA
"CDISCPILOT01","DS","CDISCPILOT01-701-1033",1,"Randomized",NA,"PROTOCOL MILESTONE",0,"Baseline","2014-03-18","2014-03-18",NA
"CDISCPILOT01","DS","CDISCPILOT01-701-1033",2,"Sponsor Decision (Study or Patient Discontinued by the Sponsor)",NA,"DISPOSITION EVENT",4,"Week 4","2014-04-14","2014-04-14",NA
"CDISCPILOT01","DS","CDISCPILOT01-701-1033",3,"Final Lab Visit","Final Lab Visit",NA,4,"Week 4","2014-04-14T10:38","2014-04-14",NA
"CDISCPILOT01","DS","CDISCPILOT01-701-1033",4,"Final Retrieval Visit","Final Retrieval Visit",NA,NA,"Retrieval","2014-09-15","2014-09-15",NA
"CDISCPILOT01","DS","CDISCPILOT01-701-1034",1,"Randomized",NA,"PROTOCOL MILESTONE",0,"Baseline","2014-07-01","2014-07-01",NA
"CDISCPILOT01","DS","CDISCPILOT01-701-1034",2,"Protocol Completed",NA,"DISPOSITION EVENT",26,"Week 26","2014-12-30","2014-12-30",NA
"CDISCPILOT01","DS","CDISCPILOT01-701-1034",3,"Final Lab Visit","Final Lab Visit",NA,26,"Week 26","2014-12-30T09:50","2014-12-30",NA
"CDISCPILOT01","DS","CDISCPILOT01-701-1047",1,"Randomized",NA,"PROTOCOL MILESTONE",0,"Baseline","2013-02-12","2013-02-12",NA
"CDISCPILOT01","DS","CDISCPILOT01-701-1047",2,"Adverse Event",NA,"DISPOSITION EVENT",NA,"Ambul Ecg Removal","2013-03-29","2013-03-29",NA
"CDISCPILOT01","DS","CDISCPILOT01-701-1047",3,"Final Lab Visit","Final Lab Visit",NA,6,"Unscheduled 6.1","2013-04-07T11:20","2013-04-07",NA
"CDISCPILOT01","DS","CDISCPILOT01-701-1047",4,"Final Retrieval Visit","Final Retrieval Visit",NA,NA,"Retrieval","2013-07-28","2013-07-28",NA
"CDISCPILOT01","DS","CDISCPILOT01-701-1057",1,"Screen Failure",NA,"DISPOSITION EVENT",1,"Screening 1","2013-12-20","2013-12-20",NA
"CDISCPILOT01","DS","CDISCPILOT01-701-1097",1,"Randomized",NA,"PROTOCOL MILESTONE",0,"Baseline","2014-01-01","2014-01-01",NA
"CDISCPILOT01","DS","CDISCPILOT01-701-1097",2,"Protocol Completed",NA,"DISPOSITION EVENT",26,"Week 26","2014-07-09","2014-07-09",NA
"CDISCPILOT01","DS","CDISCPILOT01-701-1097",3,"Final Lab Visit","Final Lab Visit",NA,26,"Week 26","2014-07-09T09:39","2014-07-09",NA
"CDISCPILOT01","DS","CDISCPILOT01-701-1111",1,"Randomized",NA,"PROTOCOL MILESTONE",0,"Baseline","2012-09-07","2012-09-07",NA
"CDISCPILOT01","DS","CDISCPILOT01-701-1111",2,"Adverse Event",NA,"DISPOSITION EVENT",2,"Week 2","2012-09-17","2012-09-17",NA
"CDISCPILOT01","DS","CDISCPILOT01-701-1111",3,"Final Lab Visit","Final Lab Visit",NA,2,"Week 2","2012-09-17T11:48","2012-09-17",NA
"CDISCPILOT01","DS","CDISCPILOT01-701-1111",4,"Final Retrieval Visit","Final Retrieval Visit",NA,NA,"Retrieval","2013-02-22","2013-02-22",NA
"CDISCPILOT01","DS","CDISCPILOT01-701-1115",1,"Randomized",NA,"PROTOCOL MILESTONE",0,"Baseline","2012-11-30","2012-11-30",NA
"CDISCPILOT01","DS","CDISCPILOT01-701-1115",2,"Adverse Event",NA,"DISPOSITION EVENT",8,"Week 8","2013-01-23","2013-01-23",NA
"CDISCPILOT01","DS","CDISCPILOT01-701-1115",3,"Final Lab Visit","Final Lab Visit",NA,8,"Week 8","2013-01-23T12:13","2013-01-23",NA
"CDISCPILOT01","DS","CDISCPILOT01-701-1115",4,"Final Retrieval Visit","Final Retrieval Visit",NA,NA,"Retrieval","2013-05-20","2013-05-20",NA
"CDISCPILOT01","DS","CDISCPILOT01-701-1118",1,"Randomized",NA,"PROTOCOL MILESTONE",0,"Baseline","2014-03-12","2014-03-12",NA
"CDISCPILOT01","DS","CDISCPILOT01-701-1118",2,"Protocol Completed",NA,"DISPOSITION EVENT",26,"Week 26","2014-09-09","2014-09-09",NA
"CDISCPILOT01","DS","CDISCPILOT01-701-1118",3,"Final Lab Visit","Final Lab Visit",NA,26,"Week 26","2014-09-09T13:28","2014-09-09",NA
"CDISCPILOT01","DS","CDISCPILOT01-701-1130",1,"Randomized",NA,"PROTOCOL MILESTONE",0,"Baseline","2014-02-15","2014-02-15",NA
"CDISCPILOT01","DS","CDISCPILOT01-701-1130",2,"Protocol Completed",NA,"DISPOSITION EVENT",26,"Week 26","2014-08-16","2014-08-16",NA
"CDISCPILOT01","DS","CDISCPILOT01-701-1130",3,"Final Lab Visit","Final Lab Visit",NA,26,"Week 26","2014-08-16T13:10","2014-08-16",NA
"CDISCPILOT01","DS","CDISCPILOT01-701-1133",1,"Randomized",NA,"PROTOCOL MILESTONE",0,"Baseline","2012-10-28","2012-10-28",NA
"CDISCPILOT01","DS","CDISCPILOT01-701-1133",2,"Protocol Completed",NA,"DISPOSITION EVENT",26,"Week 26","2013-04-29","2013-04-29",NA
"CDISCPILOT01","DS","CDISCPILOT01-701-1133",3,"Final Lab Visit","Final Lab Visit",NA,26,"Week 26","2013-04-29T10:13","2013-04-29",NA
"CDISCPILOT01","DS","CDISCPILOT01-701-1145",1,"Screen Failure",NA,"DISPOSITION EVENT",1,"Screening 1","2013-09-05","2013-09-05",NA
"CDISCPILOT01","DS","CDISCPILOT01-701-1146",1,"Randomized",NA,"PROTOCOL MILESTONE",0,"Baseline","2013-05-20","2013-05-20",NA
"CDISCPILOT01","DS","CDISCPILOT01-701-1146",2,"Adverse Event",NA,"DISPOSITION EVENT",6,"Week 6","2013-06-30","2013-06-30",NA
"CDISCPILOT01","DS","CDISCPILOT01-701-1146",3,"Final Lab Visit","Final Lab Visit",NA,6,"Week 6","2013-06-30T11:44","2013-06-30",NA
"CDISCPILOT01","DS","CDISCPILOT01-701-1148",1,"Randomized",NA,"PROTOCOL MILESTONE",0,"Baseline","2013-08-23","2013-08-23",NA
"CDISCPILOT01","DS","CDISCPILOT01-701-1148",2,"Protocol Completed",NA,"DISPOSITION EVENT",26,"Week 26","2014-02-20","2014-02-20",NA
"CDISCPILOT01","DS","CDISCPILOT01-701-1148",3,"Final Lab Visit","Final Lab Visit",NA,26,"Week 26","2014-02-20T15:07","2014-02-20",NA
"CDISCPILOT01","DS","CDISCPILOT01-701-1153",1,"Randomized",NA,"PROTOCOL MILESTONE",0,"Baseline","2013-09-23","2013-09-23",NA
"CDISCPILOT01","DS","CDISCPILOT01-701-1153",2,"Protocol Completed",NA,"DISPOSITION EVENT",26,"Week 26","2014-04-01","2014-04-01",NA
"CDISCPILOT01","DS","CDISCPILOT01-701-1153",3,"Final Lab Visit","Final Lab Visit",NA,26,"Week 26","2014-04-01T14:25","2014-04-01",NA
"CDISCPILOT01","DS","CDISCPILOT01-701-1162",1,"Screen Failure",NA,"DISPOSITION EVENT",1,"Screening 1","2013-04-18","2013-04-18",NA
"CDISCPILOT01","DS","CDISCPILOT01-701-1176",1,"Screen Failure",NA,"DISPOSITION EVENT",1,"Screening 1","2012-09-30","2012-09-30",NA
"CDISCPILOT01","DS","CDISCPILOT01-701-1180",1,"Randomized",NA,"PROTOCOL MILESTONE",0,"Baseline","2013-02-12","2013-02-12",NA
"CDISCPILOT01","DS","CDISCPILOT01-701-1180",2,"Adverse Event",NA,"DISPOSITION EVENT",6,"Week 6","2013-03-23","2013-03-23",NA
"CDISCPILOT01","DS","CDISCPILOT01-701-1180",3,"Final Lab Visit","Final Lab Visit",NA,6,"Week 6","2013-03-23T12:45","2013-03-23",NA
"CDISCPILOT01","DS","CDISCPILOT01-701-1181",1,"Randomized",NA,"PROTOCOL MILESTONE",0,"Baseline","2013-12-05","2013-12-05",NA
"CDISCPILOT01","DS","CDISCPILOT01-701-1181",2,"Adverse Event",NA,"DISPOSITION EVENT",2,"Week 2","2013-12-12","2013-12-12",NA
"CDISCPILOT01","DS","CDISCPILOT01-701-1181",3,"Final Lab Visit","Final Lab Visit",NA,2,"Week 2","2013-12-12T12:09","2013-12-12",NA
"CDISCPILOT01","DS","CDISCPILOT01-701-1181",4,"Final Retrieval Visit","Final Retrieval Visit",NA,NA,"Retrieval","2014-05-23","2014-05-23",NA
"CDISCPILOT01","DS","CDISCPILOT01-701-1188",1,"Randomized",NA,"PROTOCOL MILESTONE",0,"Baseline","2013-02-15","2013-02-15",NA
"CDISCPILOT01","DS","CDISCPILOT01-701-1188",2,"Adverse Event",NA,"DISPOSITION EVENT",6,"Week 6","2013-03-25","2013-03-25",NA
"CDISCPILOT01","DS","CDISCPILOT01-701-1188",3,"Final Lab Visit","Final Lab Visit",NA,6,"Week 6","2013-03-25T15:08","2013-03-25",NA
"CDISCPILOT01","DS","CDISCPILOT01-701-1188",4,"Final Retrieval Visit","Final Retrieval Visit",NA,NA,"Retrieval","2013-08-04","2013-08-04",NA
"CDISCPILOT01","DS","CDISCPILOT01-701-1192",1,"Randomized",NA,"PROTOCOL MILESTONE",0,"Baseline","2012-07-22","2012-07-22",NA
"CDISCPILOT01","DS","CDISCPILOT01-701-1192",2,"Protocol Completed",NA,"DISPOSITION EVENT",26,"Week 26","2013-01-20","2013-01-20",NA
"CDISCPILOT01","DS","CDISCPILOT01-701-1192",3,"Final Lab Visit","Final Lab Visit",NA,26,"Week 26","2013-01-20T15:47","2013-01-20",NA
"CDISCPILOT01","DS","CDISCPILOT01-701-1203",1,"Randomized",NA,"PROTOCOL MILESTONE",0,"Baseline","2013-02-02","2013-02-02",NA
"CDISCPILOT01","DS","CDISCPILOT01-701-1203",2,"Protocol Completed",NA,"DISPOSITION EVENT",26,"Week 26","2013-08-03","2013-08-03",NA
"CDISCPILOT01","DS","CDISCPILOT01-701-1203",3,"Final Lab Visit","Final Lab Visit",NA,26,"Week 26","2013-08-03T10:10","2013-08-03",NA
"CDISCPILOT01","DS","CDISCPILOT01-701-1211",1,"Randomized",NA,"PROTOCOL MILESTONE",0,"Baseline","2012-11-15","2012-11-15",NA
"CDISCPILOT01","DS","CDISCPILOT01-701-1211",2,"Final Lab Visit","Final Lab Visit",NA,8,"Week 8","2013-01-08T12:13","2013-01-08",NA
"CDISCPILOT01","DS","CDISCPILOT01-701-1211",3,"Death",NA,"DISPOSITION EVENT",12,"Week 12","2013-01-14","2013-01-14",NA
"CDISCPILOT01","DS","CDISCPILOT01-701-1234",1,"Randomized",NA,"PROTOCOL MILESTONE",0,"Baseline","2013-03-30","2013-03-30",NA
"CDISCPILOT01","DS","CDISCPILOT01-701-1234",2,"Protocol Completed",NA,"DISPOSITION EVENT",26,"Week 26","2013-09-22","2013-09-22",NA
"CDISCPILOT01","DS","CDISCPILOT01-701-1234",3,"Final Lab Visit","Final Lab Visit",NA,26,"Week 26","2013-09-22T09:25","2013-09-22",NA
"CDISCPILOT01","DS","CDISCPILOT01-701-1239",1,"Randomized",NA,"PROTOCOL MILESTONE",0,"Baseline","2014-01-11","2014-01-11",NA
"CDISCPILOT01","DS","CDISCPILOT01-701-1239",2,"Protocol Completed",NA,"DISPOSITION EVENT",26,"Week 26","2014-07-11","2014-07-11",NA
"CDISCPILOT01","DS","CDISCPILOT01-701-1239",3,"Final Lab Visit","Final Lab Visit",NA,26,"Week 26","2014-07-11T15:40","2014-07-11",NA
"CDISCPILOT01","DS","CDISCPILOT01-701-1240",1,"Screen Failure",NA,"DISPOSITION EVENT",1,"Screening 1","2013-09-22","2013-09-22",NA
"CDISCPILOT01","DS","CDISCPILOT01-701-1275",1,"Randomized",NA,"PROTOCOL MILESTONE",0,"Baseline","2014-02-07","2014-02-07",NA
"CDISCPILOT01","DS","CDISCPILOT01-701-1275",2,"Withdraw Consent",NA,"DISPOSITION EVENT",16,"Week 16","2014-06-14","2014-06-14",NA
"CDISCPILOT01","DS","CDISCPILOT01-701-1275",3,"Final Lab Visit","Final Lab Visit",NA,16,"Week 16","2014-06-14T12:35","2014-06-14",NA
"CDISCPILOT01","DS","CDISCPILOT01-701-1287",1,"Randomized",NA,"PROTOCOL MILESTONE",0,"Baseline","2014-01-25","2014-01-25",NA
"CDISCPILOT01","DS","CDISCPILOT01-701-1287",2,"Protocol Completed",NA,"DISPOSITION EVENT",26,"Week 26","2014-07-26","2014-07-26",NA
"CDISCPILOT01","DS","CDISCPILOT01-701-1287",3,"Final Lab Visit","Final Lab Visit",NA,26,"Week 26","2014-07-26T13:15","2014-07-26",NA
"CDISCPILOT01","DS","CDISCPILOT01-701-1294",1,"Randomized",NA,"PROTOCOL MILESTONE",0,"Baseline","2013-03-24","2013-03-24",NA
"CDISCPILOT01","DS","CDISCPILOT01-701-1294",2,"Adverse Event",NA,"DISPOSITION EVENT",12,"Week 12","2013-06-14","2013-06-14",NA
"CDISCPILOT01","DS","CDISCPILOT01-701-1294",3,"Final Lab Visit","Final Lab Visit",NA,12,"Week 12","2013-06-14T09:47","2013-06-14",NA
"CDISCPILOT01","DS","CDISCPILOT01-701-1294",4,"Final Retrieval Visit","Final Retrieval Visit",NA,NA,"Retrieval","2013-10-08","2013-10-08",NA
"CDISCPILOT01","DS","CDISCPILOT01-701-1302",1,"Randomized",NA,"PROTOCOL MILESTONE",0,"Baseline","2013-08-29","2013-08-29",NA
"CDISCPILOT01","DS","CDISCPILOT01-701-1302",2,"Adverse Event",NA,"DISPOSITION EVENT",12,"Week 12","2013-11-05","2013-11-05",NA
"CDISCPILOT01","DS","CDISCPILOT01-701-1302",3,"Final Lab Visit","Final Lab Visit",NA,12,"Week 12","2013-11-05T13:54","2013-11-05",NA
"CDISCPILOT01","DS","CDISCPILOT01-701-1302",4,"Final Retrieval Visit","Final Retrieval Visit",NA,NA,"Retrieval","2014-02-13","2014-02-13",NA
"CDISCPILOT01","DS","CDISCPILOT01-701-1307",1,"Screen Failure",NA,"DISPOSITION EVENT",1,"Screening 1","2013-12-08","2013-12-08",NA
"CDISCPILOT01","DS","CDISCPILOT01-701-1317",1,"Randomized",NA,"PROTOCOL MILESTONE",0,"Baseline","2014-05-22","2014-05-22",NA
"CDISCPILOT01","DS","CDISCPILOT01-701-1317",2,"Protocol Completed",NA,"DISPOSITION EVENT",26,"Week 26","2014-11-20","2014-11-20",NA
"CDISCPILOT01","DS","CDISCPILOT01-701-1317",3,"Final Lab Visit","Final Lab Visit",NA,26,"Week 26","2014-11-20T11:54","2014-11-20",NA
"CDISCPILOT01","DS","CDISCPILOT01-701-1324",1,"Randomized",NA,"PROTOCOL MILESTONE",0,"Baseline","2012-10-02","2012-10-02",NA
"CDISCPILOT01","DS","CDISCPILOT01-701-1324",2,"Protocol Completed",NA,"DISPOSITION EVENT",26,"Week 26","2013-04-02","2013-04-02",NA
"CDISCPILOT01","DS","CDISCPILOT01-701-1324",3,"Final Lab Visit","Final Lab Visit",NA,26,"Week 26","2013-04-02T11:35","2013-04-02",NA
"CDISCPILOT01","DS","CDISCPILOT01-701-1341",1,"Randomized",NA,"PROTOCOL MILESTONE",0,"Baseline","2013-01-05","2013-01-05",NA
"CDISCPILOT01","DS","CDISCPILOT01-701-1341",2,"Adverse Event",NA,"DISPOSITION EVENT",4,"Week 4","2013-02-07","2013-02-07",NA
"CDISCPILOT01","DS","CDISCPILOT01-701-1341",3,"Final Lab Visit","Final Lab Visit",NA,4,"Week 4","2013-02-07T15:16","2013-02-07",NA
"CDISCPILOT01","DS","CDISCPILOT01-701-1345",1,"Randomized",NA,"PROTOCOL MILESTONE",0,"Baseline","2013-10-08","2013-10-08",NA
"CDISCPILOT01","DS","CDISCPILOT01-701-1345",2,"Sponsor Decision (Study or Patient Discontinued by the Sponsor)",NA,"DISPOSITION EVENT",24,"Week 24","2014-03-18","2014-03-18",NA
"CDISCPILOT01","DS","CDISCPILOT01-701-1345",3,"Final Lab Visit","Final Lab Visit",NA,24,"Week 24","2014-03-18T14:12","2014-03-18",NA
"CDISCPILOT01","DS","CDISCPILOT01-701-1356",1,"Screen Failure",NA,"DISPOSITION EVENT",1,"Screening 1","2014-04-01","2014-04-01",NA
"CDISCPILOT01","DS","CDISCPILOT01-701-1360",1,"Randomized",NA,"PROTOCOL MILESTONE",0,"Baseline","2013-07-31","2013-07-31",NA
"CDISCPILOT01","DS","CDISCPILOT01-701-1360",2,"Pmd Decision Due to Ae's",NA,"DISPOSITION EVENT",2,"Week 2","2013-08-14","2013-08-14",NA
"CDISCPILOT01","DS","CDISCPILOT01-701-1360",3,"Final Lab Visit","Final Lab Visit",NA,2,"Week 2","2013-08-14T15:17","2013-08-14",NA
"CDISCPILOT01","DS","CDISCPILOT01-701-1360",4,"Final Retrieval Visit","Final Retrieval Visit",NA,NA,"Retrieval","2014-02-11","2014-02-11",NA
"CDISCPILOT01","DS","CDISCPILOT01-701-1363",1,"Randomized",NA,"PROTOCOL MILESTONE",0,"Baseline","2013-05-30","2013-05-30",NA
"CDISCPILOT01","DS","CDISCPILOT01-701-1363",2,"Protocol Completed",NA,"DISPOSITION EVENT",26,"Week 26","2013-11-27","2013-11-27",NA
"CDISCPILOT01","DS","CDISCPILOT01-701-1363",3,"Final Lab Visit","Final Lab Visit",NA,26,"Week 26","2013-11-27T10:00","2013-11-27",NA
"CDISCPILOT01","DS","CDISCPILOT01-701-1369",1,"Screen Failure",NA,"DISPOSITION EVENT",1,"Screening 1","2013-09-18","2013-09-18",NA
"CDISCPILOT01","DS","CDISCPILOT01-701-1383",1,"Randomized",NA,"PROTOCOL MILESTONE",0,"Baseline","2013-02-04","2013-02-04",NA
"CDISCPILOT01","DS","CDISCPILOT01-701-1383",2,"Protocol Completed",NA,"DISPOSITION EVENT",26,"Week 26","2013-08-06","2013-08-06",NA
"CDISCPILOT01","DS","CDISCPILOT01-701-1383",3,"Final Lab Visit","Final Lab Visit",NA,26,"Week 26","2013-08-06T12:00","2013-08-06",NA
"CDISCPILOT01","DS","CDISCPILOT01-701-1386",1,"Screen Failure",NA,"DISPOSITION EVENT",1,"Screening 1","2013-12-28","2013-12-28",NA
"CDISCPILOT01","DS","CDISCPILOT01-701-1387",1,"Randomized",NA,"PROTOCOL MILESTONE",0,"Baseline","2014-03-12","2014-03-12",NA
"CDISCPILOT01","DS","CDISCPILOT01-701-1387",2,"Protocol Violation",NA,"DISPOSITION EVENT",2,"Week 2","2014-03-25","2014-03-25",NA
"CDISCPILOT01","DS","CDISCPILOT01-701-1387",3,"Final Lab Visit","Final Lab Visit",NA,2,"Week 2","2014-03-25T10:40","2014-03-25",NA
"CDISCPILOT01","DS","CDISCPILOT01-701-1387",4,"Final Retrieval Visit","Final Retrieval Visit",NA,NA,"Retrieval","2014-08-27","2014-08-27",NA
"CDISCPILOT01","DS","CDISCPILOT01-701-1392",1,"Randomized",NA,"PROTOCOL MILESTONE",0,"Baseline","2012-10-28","2012-10-28",NA
"CDISCPILOT01","DS","CDISCPILOT01-701-1392",2,"Protocol Completed",NA,"DISPOSITION EVENT",26,"Week 26","2013-04-28","2013-04-28",NA
"CDISCPILOT01","DS","CDISCPILOT01-701-1392",3,"Final Lab Visit","Final Lab Visit",NA,26,"Week 26","2013-04-28T11:30","2013-04-28",NA
"CDISCPILOT01","DS","CDISCPILOT01-701-1411",1,"Screen Failure",NA,"DISPOSITION EVENT",1,"Screening 1","2012-11-14","2012-11-14",NA
"CDISCPILOT01","DS","CDISCPILOT01-701-1415",1,"Randomized",NA,"PROTOCOL MILESTONE",0,"Baseline","2013-09-23","2013-09-23",NA
"CDISCPILOT01","DS","CDISCPILOT01-701-1415",2,"Protocol Completed",NA,"DISPOSITION EVENT",26,"Week 26","2014-03-24","2014-03-24",NA
"CDISCPILOT01","DS","CDISCPILOT01-701-1415",3,"Final Lab Visit","Final Lab Visit",NA,26,"Week 26","2014-03-24T12:34","2014-03-24",NA
"CDISCPILOT01","DS","CDISCPILOT01-701-1429",1,"Randomized",NA,"PROTOCOL MILESTONE",0,"Baseline","2013-03-19","2013-03-19",NA
"CDISCPILOT01","DS","CDISCPILOT01-701-1429",2,"Withdraw Consent Due to Compliancy Issue",NA,"DISPOSITION EVENT",6,"Week 6","2013-04-30","2013-04-30",NA
"CDISCPILOT01","DS","CDISCPILOT01-701-1429",3,"Final Lab Visit","Final Lab Visit",NA,6,"Week 6","2013-04-30T12:22","2013-04-30",NA
"CDISCPILOT01","DS","CDISCPILOT01-701-1440",1,"Randomized",NA,"PROTOCOL MILESTONE",0,"Baseline","2013-08-08","2013-08-08",NA
"CDISCPILOT01","DS","CDISCPILOT01-701-1440",2,"Protocol Completed",NA,"DISPOSITION EVENT",26,"Week 26","2014-02-05","2014-02-05",NA
"CDISCPILOT01","DS","CDISCPILOT01-701-1440",3,"Final Lab Visit","Final Lab Visit",NA,26,"Week 26","2014-02-05T11:25","2014-02-05",NA
"CDISCPILOT01","DS","CDISCPILOT01-701-1442",1,"Randomized",NA,"PROTOCOL MILESTONE",0,"Baseline","2013-10-26","2013-10-26",NA
"CDISCPILOT01","DS","CDISCPILOT01-701-1442",2,"Protocol Completed",NA,"DISPOSITION EVENT",26,"Week 26","2014-04-26","2014-04-26",NA
"CDISCPILOT01","DS","CDISCPILOT01-701-1442",3,"Final Lab Visit","Final Lab Visit",NA,26,"Week 26","2014-04-26T10:00","2014-04-26",NA
"CDISCPILOT01","DS","CDISCPILOT01-701-1444",1,"Randomized",NA,"PROTOCOL MILESTONE",0,"Baseline","2013-01-05","2013-01-05",NA
"CDISCPILOT01","DS","CDISCPILOT01-701-1444",2,"Adverse Event",NA,"DISPOSITION EVENT",6,"Week 6","2013-02-13","2013-02-13",NA
"CDISCPILOT01","DS","CDISCPILOT01-701-1444",3,"Final Lab Visit","Final Lab Visit",NA,6,"Week 6","2013-02-13T15:53","2013-02-13",NA
"CDISCPILOT01","DS","CDISCPILOT01-701-1444",4,"Final Retrieval Visit","Final Retrieval Visit",NA,NA,"Retrieval","2013-06-20","2013-06-20",NA
"CDISCPILOT01","DS","CDISCPILOT01-702-1082",1,"Randomized",NA,"PROTOCOL MILESTONE",0,"Baseline","2013-07-26","2013-07-26",NA
"CDISCPILOT01","DS","CDISCPILOT01-702-1082",2,"Pt Finds Patches""Inconvenient & Itchy;pt Prefers'pills'""",NA,"DISPOSITION EVENT",12,"Week 12","2013-11-17","2013-11-17",NA
"CDISCPILOT01","DS","CDISCPILOT01-702-1082",3,"Final Lab Visit","Final Lab Visit",NA,12,"Week 12","2013-11-17T12:20","2013-11-17",NA
"CDISCPILOT01","DS","CDISCPILOT01-703-1042",1,"Randomized",NA,"PROTOCOL MILESTONE",0,"Baseline","2013-03-02","2013-03-02",NA
"CDISCPILOT01","DS","CDISCPILOT01-703-1042",2,"Protocol Completed",NA,"DISPOSITION EVENT",26,"Week 26","2013-08-31","2013-08-31",NA
"CDISCPILOT01","DS","CDISCPILOT01-703-1042",3,"Final Lab Visit","Final Lab Visit",NA,26,"Week 26","2013-08-31T11:00","2013-08-31",NA
"CDISCPILOT01","DS","CDISCPILOT01-703-1076",1,"Randomized",NA,"PROTOCOL MILESTONE",0,"Baseline","2013-10-25","2013-10-25",NA
"CDISCPILOT01","DS","CDISCPILOT01-703-1076",2,"Adverse Event",NA,"DISPOSITION EVENT",12,"Week 12","2013-12-24","2013-12-24",NA
"CDISCPILOT01","DS","CDISCPILOT01-703-1076",3,"Final Lab Visit","Final Lab Visit",NA,12,"Week 12","2013-12-24T13:05","2013-12-24",NA
"CDISCPILOT01","DS","CDISCPILOT01-703-1086",1,"Randomized",NA,"PROTOCOL MILESTONE",0,"Baseline","2012-09-02","2012-09-02",NA
"CDISCPILOT01","DS","CDISCPILOT01-703-1086",2,"Adverse Event",NA,"DISPOSITION EVENT",16,"Week 16","2012-12-24","2012-12-24",NA
"CDISCPILOT01","DS","CDISCPILOT01-703-1086",3,"Final Lab Visit","Final Lab Visit",NA,16,"Week 16","2012-12-24T09:30","2012-12-24",NA
"CDISCPILOT01","DS","CDISCPILOT01-703-1086",4,"Final Retrieval Visit","Final Retrieval Visit",NA,NA,"Retrieval","2013-03-26","2013-03-26",NA
"CDISCPILOT01","DS","CDISCPILOT01-703-1096",1,"Randomized",NA,"PROTOCOL MILESTONE",0,"Baseline","2013-01-25","2013-01-25",NA
"CDISCPILOT01","DS","CDISCPILOT01-703-1096",2,"Final Lab Visit","Final Lab Visit",NA,4,"Week 4","2013-02-23T17:10","2013-02-23",NA
"CDISCPILOT01","DS","CDISCPILOT01-703-1096",3,"Unable to Contact Patient (Lost to Follow-Up)",NA,"DISPOSITION EVENT",6,"Week 6","2013-03-29","2013-03-29",NA
"CDISCPILOT01","DS","CDISCPILOT01-703-1100",1,"Randomized",NA,"PROTOCOL MILESTONE",0,"Baseline","2013-03-13","2013-03-13",NA
"CDISCPILOT01","DS","CDISCPILOT01-703-1100",2,"Protocol Completed",NA,"DISPOSITION EVENT",26,"Week 26","2013-09-14","2013-09-14",NA
"CDISCPILOT01","DS","CDISCPILOT01-703-1100",3,"Final Lab Visit","Final Lab Visit",NA,26,"Week 26","2013-09-14T15:00","2013-09-14",NA
"CDISCPILOT01","DS","CDISCPILOT01-703-1119",1,"Randomized",NA,"PROTOCOL MILESTONE",0,"Baseline","2013-02-20","2013-02-20",NA
"CDISCPILOT01","DS","CDISCPILOT01-703-1119",2,"Adverse Event",NA,"DISPOSITION EVENT",16,"Week 16","2013-06-13","2013-06-13",NA
"CDISCPILOT01","DS","CDISCPILOT01-703-1119",3,"Final Lab Visit","Final Lab Visit",NA,16,"Week 16","2013-06-13T12:15","2013-06-13",NA
"CDISCPILOT01","DS","CDISCPILOT01-703-1119",4,"Final Retrieval Visit","Final Retrieval Visit",NA,NA,"Retrieval","2013-08-24","2013-08-24",NA
"CDISCPILOT01","DS","CDISCPILOT01-703-1175",1,"Randomized",NA,"PROTOCOL MILESTONE",0,"Baseline","2013-12-20","2013-12-20",NA
"CDISCPILOT01","DS","CDISCPILOT01-703-1175",2,"Protocol Entry Criteria not Met",NA,"DISPOSITION EVENT",2,"Week 2","2013-12-31","2013-12-31",NA
"CDISCPILOT01","DS","CDISCPILOT01-703-1175",3,"Final Lab Visit","Final Lab Visit",NA,2,"Week 2","2013-12-31T13:15","2013-12-31",NA
"CDISCPILOT01","DS","CDISCPILOT01-703-1182",1,"Randomized",NA,"PROTOCOL MILESTONE",0,"Baseline","2013-10-17","2013-10-17",NA
"CDISCPILOT01","DS","CDISCPILOT01-703-1182",2,"Adverse Event",NA,"DISPOSITION EVENT",8,"Week 8","2013-12-12","2013-12-12",NA
"CDISCPILOT01","DS","CDISCPILOT01-703-1182",3,"Final Lab Visit","Final Lab Visit",NA,8,"Week 8","2013-12-12T13:10","2013-12-12",NA
"CDISCPILOT01","DS","CDISCPILOT01-703-1197",1,"Final Lab Visit","Final Lab Visit",NA,1,"Unscheduled 1.1","2013-06-01T10:00","2013-06-01",NA
"CDISCPILOT01","DS","CDISCPILOT01-703-1197",2,"Randomized",NA,"PROTOCOL MILESTONE",0,"Baseline","2013-06-16","2013-06-16",NA
"CDISCPILOT01","DS","CDISCPILOT01-703-1197",3,"Caregiver Decision:  See Comment Page",NA,"DISPOSITION EVENT",2,"Week 2","2013-07-22","2013-07-22",NA
"CDISCPILOT01","DS","CDISCPILOT01-703-1210",1,"Randomized",NA,"PROTOCOL MILESTONE",0,"Baseline","2013-03-16","2013-03-16",NA
"CDISCPILOT01","DS","CDISCPILOT01-703-1210",2,"Protocol Completed",NA,"DISPOSITION EVENT",26,"Week 26","2013-09-06","2013-09-06",NA
"CDISCPILOT01","DS","CDISCPILOT01-703-1210",3,"Final Lab Visit","Final Lab Visit",NA,26,"Week 26","2013-09-06T13:30","2013-09-06",NA
"CDISCPILOT01","DS","CDISCPILOT01-703-1258",1,"Randomized",NA,"PROTOCOL MILESTONE",0,"Baseline","2012-07-20","2012-07-20",NA
"CDISCPILOT01","DS","CDISCPILOT01-703-1258",2,"Final Lab Visit","Final Lab Visit",NA,24,"Week 24","2012-12-31T11:30","2012-12-31",NA
"CDISCPILOT01","DS","CDISCPILOT01-703-1258",3,"Adverse Event",NA,"DISPOSITION EVENT",26,"Week 26","2013-01-21","2013-01-21",NA
"CDISCPILOT01","DS","CDISCPILOT01-703-1279",1,"Final Lab Visit","Final Lab Visit",NA,1,"Screening 1","2013-04-27T11:00","2013-04-27",NA
"CDISCPILOT01","DS","CDISCPILOT01-703-1279",2,"Randomized",NA,"PROTOCOL MILESTONE",0,"Baseline","2013-05-13","2013-05-13",NA
"CDISCPILOT01","DS","CDISCPILOT01-703-1279",3,"Caregiver Became Ill",NA,"DISPOSITION EVENT",2,"Week 2","2013-06-22","2013-06-22",NA
"CDISCPILOT01","DS","CDISCPILOT01-703-1295",1,"Randomized",NA,"PROTOCOL MILESTONE",0,"Baseline","2013-11-21","2013-11-21",NA
"CDISCPILOT01","DS","CDISCPILOT01-703-1295",2,"Family Wishes to Discontinue",NA,"DISPOSITION EVENT",20,"Week 20","2014-05-19","2014-05-19",NA
"CDISCPILOT01","DS","CDISCPILOT01-703-1295",3,"Final Lab Visit","Final Lab Visit",NA,20,"Week 20","2014-05-19T14:45","2014-05-19",NA
"CDISCPILOT01","DS","CDISCPILOT01-703-1299",1,"Randomized",NA,"PROTOCOL MILESTONE",0,"Baseline","2012-09-12","2012-09-12",NA
"CDISCPILOT01","DS","CDISCPILOT01-703-1299",2,"Protocol Completed",NA,"DISPOSITION EVENT",26,"Week 26","2013-03-13","2013-03-13",NA
"CDISCPILOT01","DS","CDISCPILOT01-703-1299",3,"Final Lab Visit","Final Lab Visit",NA,26,"Week 26","2013-03-13T11:40","2013-03-13",NA
"CDISCPILOT01","DS","CDISCPILOT01-703-1335",1,"Randomized",NA,"PROTOCOL MILESTONE",0,"Baseline","2014-03-17","2014-03-17",NA
"CDISCPILOT01","DS","CDISCPILOT01-703-1335",2,"Protocol Violation",NA,"DISPOSITION EVENT",6,"Week 6","2014-05-24","2014-05-24",NA
"CDISCPILOT01","DS","CDISCPILOT01-703-1335",3,"Final Lab Visit","Final Lab Visit",NA,6,"Week 6","2014-05-24T12:15","2014-05-24",NA
"CDISCPILOT01","DS","CDISCPILOT01-703-1379",1,"Randomized",NA,"PROTOCOL MILESTONE",0,"Baseline","2013-09-22","2013-09-22",NA
"CDISCPILOT01","DS","CDISCPILOT01-703-1379",2,"Protocol Completed",NA,"DISPOSITION EVENT",26,"Week 26","2014-03-21","2014-03-21",NA
"CDISCPILOT01","DS","CDISCPILOT01-703-1379",3,"Final Lab Visit","Final Lab Visit",NA,26,"Week 26","2014-03-21T10:55","2014-03-21",NA
"CDISCPILOT01","DS","CDISCPILOT01-703-1396",1,"Screen Failure",NA,"DISPOSITION EVENT",1,"Screening 1","2014-02-09","2014-02-09",NA
"CDISCPILOT01","DS","CDISCPILOT01-703-1403",1,"Randomized",NA,"PROTOCOL MILESTONE",0,"Baseline","2012-12-12","2012-12-12",NA
"CDISCPILOT01","DS","CDISCPILOT01-703-1403",2,"Adverse Event",NA,"DISPOSITION EVENT",2,"Week 2","2012-12-19","2012-12-19",NA
"CDISCPILOT01","DS","CDISCPILOT01-703-1403",3,"Final Lab Visit","Final Lab Visit",NA,2,"Week 2","2012-12-19T10:15","2012-12-19",NA
"CDISCPILOT01","DS","CDISCPILOT01-703-1439",1,"Randomized",NA,"PROTOCOL MILESTONE",0,"Baseline","2014-03-12","2014-03-12",NA
"CDISCPILOT01","DS","CDISCPILOT01-703-1439",2,"Protocol Completed",NA,"DISPOSITION EVENT",26,"Week 26","2014-09-11","2014-09-11",NA
"CDISCPILOT01","DS","CDISCPILOT01-703-1439",3,"Final Lab Visit","Final Lab Visit",NA,26,"Week 26","2014-09-11T12:40","2014-09-11",NA
"CDISCPILOT01","DS","CDISCPILOT01-704-1008",1,"Randomized",NA,"PROTOCOL MILESTONE",0,"Baseline","2013-01-13","2013-01-13",NA
"CDISCPILOT01","DS","CDISCPILOT01-704-1008",2,"Adverse Event",NA,"DISPOSITION EVENT",6,"Week 6","2013-02-25","2013-02-25",NA
"CDISCPILOT01","DS","CDISCPILOT01-704-1008",3,"Final Lab Visit","Final Lab Visit",NA,6,"Week 6","2013-02-25T11:00","2013-02-25",NA
"CDISCPILOT01","DS","CDISCPILOT01-704-1009",1,"Randomized",NA,"PROTOCOL MILESTONE",0,"Baseline","2013-08-27","2013-08-27",NA
"CDISCPILOT01","DS","CDISCPILOT01-704-1009",2,"Final Lab Visit","Final Lab Visit",NA,2,"Week 2","2013-09-14T15:00","2013-09-14",NA
"CDISCPILOT01","DS","CDISCPILOT01-704-1009",3,"Too Time Consuming;pt Refused Future Holters",NA,"DISPOSITION EVENT",4,"Week 4","2013-10-02","2013-10-02",NA
"CDISCPILOT01","DS","CDISCPILOT01-704-1010",1,"Randomized",NA,"PROTOCOL MILESTONE",0,"Baseline","2014-02-21","2014-02-21",NA
"CDISCPILOT01","DS","CDISCPILOT01-704-1010",2,"Patient is Moving",NA,"DISPOSITION EVENT",20,"Week 20","2014-07-09","2014-07-09",NA
"CDISCPILOT01","DS","CDISCPILOT01-704-1010",3,"Final Lab Visit","Final Lab Visit",NA,20,"Week 20","2014-07-09T11:00","2014-07-09",NA
"CDISCPILOT01","DS","CDISCPILOT01-704-1017",1,"Randomized",NA,"PROTOCOL MILESTONE",0,"Baseline","2013-10-06","2013-10-06",NA
"CDISCPILOT01","DS","CDISCPILOT01-704-1017",2,"Final Lab Visit","Final Lab Visit",NA,4,"Week 4","2013-11-01T10:45","2013-11-01",NA
"CDISCPILOT01","DS","CDISCPILOT01-704-1017",3,"Adverse Event",NA,"DISPOSITION EVENT",6,"Week 6","2013-11-24","2013-11-24",NA
"CDISCPILOT01","DS","CDISCPILOT01-704-1025",1,"Randomized",NA,"PROTOCOL MILESTONE",0,"Baseline","2013-09-27","2013-09-27",NA
"CDISCPILOT01","DS","CDISCPILOT01-704-1025",2,"Adverse Event",NA,"DISPOSITION EVENT",NA,"Ambul Ecg Removal","2013-11-29","2013-11-29",NA
"CDISCPILOT01","DS","CDISCPILOT01-704-1025",3,"Final Lab Visit","Final Lab Visit",NA,NA,"Ambul Ecg Removal","2013-11-29T12:00","2013-11-29",NA
"CDISCPILOT01","DS","CDISCPILOT01-704-1065",1,"Randomized",NA,"PROTOCOL MILESTONE",0,"Baseline","2013-10-24","2013-10-24",NA
"CDISCPILOT01","DS","CDISCPILOT01-704-1065",2,"Adverse Event",NA,"DISPOSITION EVENT",12,"Week 12","2013-12-24","2013-12-24",NA
"CDISCPILOT01","DS","CDISCPILOT01-704-1065",3,"Final Lab Visit","Final Lab Visit",NA,12,"Week 12","2013-12-24T11:45","2013-12-24",NA
"CDISCPILOT01","DS","CDISCPILOT01-704-1074",1,"Randomized",NA,"PROTOCOL MILESTONE",0,"Baseline","2014-01-22","2014-01-22",NA
"CDISCPILOT01","DS","CDISCPILOT01-704-1074",2,"Adverse Event",NA,"DISPOSITION EVENT",8,"Week 8","2014-03-31","2014-03-31",NA
"CDISCPILOT01","DS","CDISCPILOT01-704-1074",3,"Final Lab Visit","Final Lab Visit",NA,8,"Week 8","2014-03-31T10:30","2014-03-31",NA
"CDISCPILOT01","DS","CDISCPILOT01-704-1093",1,"Randomized",NA,"PROTOCOL MILESTONE",0,"Baseline","2013-03-15","2013-03-15",NA
"CDISCPILOT01","DS","CDISCPILOT01-704-1093",2,"Adverse Event",NA,"DISPOSITION EVENT",16,"Week 16","2013-06-20","2013-06-20",NA
"CDISCPILOT01","DS","CDISCPILOT01-704-1093",3,"Final Lab Visit","Final Lab Visit",NA,16,"Week 16","2013-06-20T11:10","2013-06-20",NA
"CDISCPILOT01","DS","CDISCPILOT01-704-1093",4,"Final Retrieval Visit","Final Retrieval Visit",NA,NA,"Retrieval","2013-12-25","2013-12-25",NA
"CDISCPILOT01","DS","CDISCPILOT01-704-1114",1,"Randomized",NA,"PROTOCOL MILESTONE",0,"Baseline","2013-01-23","2013-01-23",NA
"CDISCPILOT01","DS","CDISCPILOT01-704-1114",2,"Leaving Area for 5 Months",NA,"DISPOSITION EVENT",24,"Week 24","2013-07-08","2013-07-08",NA
"CDISCPILOT01","DS","CDISCPILOT01-704-1114",3,"Final Lab Visit","Final Lab Visit",NA,24,"Week 24","2013-07-08T09:56","2013-07-08",NA
"CDISCPILOT01","DS","CDISCPILOT01-704-1120",1,"Randomized",NA,"PROTOCOL MILESTONE",0,"Baseline","2013-12-02","2013-12-02",NA
"CDISCPILOT01","DS","CDISCPILOT01-704-1120",2,"Adverse Event",NA,"DISPOSITION EVENT",12,"Week 12","2014-02-03","2014-02-03",NA
"CDISCPILOT01","DS","CDISCPILOT01-704-1120",3,"Final Lab Visit","Final Lab Visit",NA,12,"Week 12","2014-02-03T11:50","2014-02-03",NA
"CDISCPILOT01","DS","CDISCPILOT01-704-1127",1,"Randomized",NA,"PROTOCOL MILESTONE",0,"Baseline","2013-10-02","2013-10-02",NA
"CDISCPILOT01","DS","CDISCPILOT01-704-1127",2,"Protocol Completed",NA,"DISPOSITION EVENT",26,"Week 26","2014-03-31","2014-03-31",NA
"CDISCPILOT01","DS","CDISCPILOT01-704-1127",3,"Final Lab Visit","Final Lab Visit",NA,26,"Week 26","2014-03-31T11:30","2014-03-31",NA
"CDISCPILOT01","DS","CDISCPILOT01-704-1135",1,"Randomized",NA,"PROTOCOL MILESTONE",0,"Baseline","2013-10-31","2013-10-31",NA
"CDISCPILOT01","DS","CDISCPILOT01-704-1135",2,"Protocol Completed",NA,"DISPOSITION EVENT",26,"Week 26","2014-05-16","2014-05-16",NA
"CDISCPILOT01","DS","CDISCPILOT01-704-1135",3,"Final Lab Visit","Final Lab Visit",NA,26,"Week 26","2014-05-16T09:45","2014-05-16",NA
"CDISCPILOT01","DS","CDISCPILOT01-704-1164",1,"Randomized",NA,"PROTOCOL MILESTONE",0,"Baseline","2012-09-19","2012-09-19",NA
"CDISCPILOT01","DS","CDISCPILOT01-704-1164",2,"Protocol Completed",NA,"DISPOSITION EVENT",26,"Week 26","2013-04-04","2013-04-04",NA
"CDISCPILOT01","DS","CDISCPILOT01-704-1164",3,"Final Lab Visit","Final Lab Visit",NA,26,"Week 26","2013-04-04","2013-04-04",NA
"CDISCPILOT01","DS","CDISCPILOT01-704-1218",1,"Randomized",NA,"PROTOCOL MILESTONE",0,"Baseline","2012-11-19","2012-11-19",NA
"CDISCPILOT01","DS","CDISCPILOT01-704-1218",2,"Protocol Completed",NA,"DISPOSITION EVENT",26,"Week 26","2013-05-27","2013-05-27",NA
"CDISCPILOT01","DS","CDISCPILOT01-704-1218",3,"Final Lab Visit","Final Lab Visit",NA,26,"Week 26","2013-05-27T11:20","2013-05-27",NA
"CDISCPILOT01","DS","CDISCPILOT01-704-1233",1,"Randomized",NA,"PROTOCOL MILESTONE",0,"Baseline","2013-03-21","2013-03-21",NA
"CDISCPILOT01","DS","CDISCPILOT01-704-1233",2,"Final Lab Visit","Final Lab Visit",NA,16,"Week 16","2013-07-11T11:30","2013-07-11",NA
"CDISCPILOT01","DS","CDISCPILOT01-704-1233",3,"Withdrew Consent",NA,"DISPOSITION EVENT",20,"Week 20","2013-07-14","2013-07-14",NA
"CDISCPILOT01","DS","CDISCPILOT01-704-1241",1,"Randomized",NA,"PROTOCOL MILESTONE",0,"Baseline","2013-08-25","2013-08-25",NA
"CDISCPILOT01","DS","CDISCPILOT01-704-1241",2,"Adverse Event",NA,"DISPOSITION EVENT",8,"Week 8","2013-10-31","2013-10-31",NA
"CDISCPILOT01","DS","CDISCPILOT01-704-1241",3,"Final Lab Visit","Final Lab Visit",NA,8,"Week 8","2013-10-31T09:15","2013-10-31",NA
"CDISCPILOT01","DS","CDISCPILOT01-704-1260",1,"Randomized",NA,"PROTOCOL MILESTONE",0,"Baseline","2012-08-30","2012-08-30",NA
"CDISCPILOT01","DS","CDISCPILOT01-704-1260",2,"Final Lab Visit","Final Lab Visit",NA,8,"Week 8","2012-10-24T15:45","2012-10-24",NA
"CDISCPILOT01","DS","CDISCPILOT01-704-1260",3,"Too many Visits",NA,"DISPOSITION EVENT",12,"Week 12","2013-01-18","2013-01-18",NA
"CDISCPILOT01","DS","CDISCPILOT01-704-1266",1,"Randomized",NA,"PROTOCOL MILESTONE",0,"Baseline","2013-10-13","2013-10-13",NA
"CDISCPILOT01","DS","CDISCPILOT01-704-1266",2,"Adverse Event",NA,"DISPOSITION EVENT",8,"Week 8","2013-12-06","2013-12-06",NA
"CDISCPILOT01","DS","CDISCPILOT01-704-1266",3,"Final Lab Visit","Final Lab Visit",NA,8,"Week 8","2013-12-06T13:15","2013-12-06",NA
"CDISCPILOT01","DS","CDISCPILOT01-704-1323",1,"Randomized",NA,"PROTOCOL MILESTONE",0,"Baseline","2013-07-08","2013-07-08",NA
"CDISCPILOT01","DS","CDISCPILOT01-704-1323",2,"Final Lab Visit","Final Lab Visit",NA,4,"Week 4","2013-08-04T13:45","2013-08-04",NA
"CDISCPILOT01","DS","CDISCPILOT01-704-1323",3,"Adverse Event",NA,"DISPOSITION EVENT",6,"Week 6","2013-08-08","2013-08-08",NA
"CDISCPILOT01","DS","CDISCPILOT01-704-1325",1,"Randomized",NA,"PROTOCOL MILESTONE",0,"Baseline","2014-04-23","2014-04-23",NA
"CDISCPILOT01","DS","CDISCPILOT01-704-1325",2,"Protocol Violation",NA,"DISPOSITION EVENT",16,"Week 16","2014-08-06","2014-08-06",NA
"CDISCPILOT01","DS","CDISCPILOT01-704-1325",3,"Final Lab Visit","Final Lab Visit",NA,16,"Week 16","2014-08-06T13:30","2014-08-06",NA
"CDISCPILOT01","DS","CDISCPILOT01-704-1332",1,"Randomized",NA,"PROTOCOL MILESTONE",0,"Baseline","2013-12-09","2013-12-09",NA
"CDISCPILOT01","DS","CDISCPILOT01-704-1332",2,"Adverse Event",NA,"DISPOSITION EVENT",12,"Week 12","2014-02-16","2014-02-16",NA
"CDISCPILOT01","DS","CDISCPILOT01-704-1332",3,"Final Lab Visit","Final Lab Visit",NA,12,"Week 12","2014-02-16T14:30","2014-02-16",NA
"CDISCPILOT01","DS","CDISCPILOT01-704-1351",1,"Randomized",NA,"PROTOCOL MILESTONE",0,"Baseline","2013-10-12","2013-10-12",NA
"CDISCPILOT01","DS","CDISCPILOT01-704-1351",2,"Protocol Completed",NA,"DISPOSITION EVENT",26,"Week 26","2014-04-18","2014-04-18",NA
"CDISCPILOT01","DS","CDISCPILOT01-704-1351",3,"Final Lab Visit","Final Lab Visit",NA,26,"Week 26","2014-04-18T10:30","2014-04-18",NA
"CDISCPILOT01","DS","CDISCPILOT01-704-1388",1,"Randomized",NA,"PROTOCOL MILESTONE",0,"Baseline","2012-12-07","2012-12-07",NA
"CDISCPILOT01","DS","CDISCPILOT01-704-1388",2,"Protocol Completed",NA,"DISPOSITION EVENT",26,"Week 26","2013-06-19","2013-06-19",NA
"CDISCPILOT01","DS","CDISCPILOT01-704-1388",3,"Final Lab Visit","Final Lab Visit",NA,26,"Week 26","2013-06-19T12:30","2013-06-19",NA
"CDISCPILOT01","DS","CDISCPILOT01-704-1435",1,"Randomized",NA,"PROTOCOL MILESTONE",0,"Baseline","2012-11-17","2012-11-17",NA
"CDISCPILOT01","DS","CDISCPILOT01-704-1435",2,"Withdrew Consent",NA,"DISPOSITION EVENT",8,"Week 8","2013-01-12","2013-01-12",NA
"CDISCPILOT01","DS","CDISCPILOT01-704-1435",3,"Final Lab Visit","Final Lab Visit",NA,8,"Week 8","2013-01-12T12:00","2013-01-12",NA
"CDISCPILOT01","DS","CDISCPILOT01-704-1445",1,"Randomized",NA,"PROTOCOL MILESTONE",0,"Baseline","2014-05-11","2014-05-11",NA
"CDISCPILOT01","DS","CDISCPILOT01-704-1445",2,"Final Lab Visit","Final Lab Visit",NA,20,"Week 20","2014-10-01T09:30","2014-10-01",NA
"CDISCPILOT01","DS","CDISCPILOT01-704-1445",3,"Death",NA,"DISPOSITION EVENT",24,"Week 24","2014-11-01","2014-11-01",NA
"CDISCPILOT01","DS","CDISCPILOT01-705-1011",1,"Screen Failure",NA,"DISPOSITION EVENT",1,"Screening 1","2013-09-01","2013-09-01",NA
"CDISCPILOT01","DS","CDISCPILOT01-705-1018",1,"Final Lab Visit","Final Lab Visit",NA,1,"Screening 1","2013-06-30T10:00","2013-06-30",NA
"CDISCPILOT01","DS","CDISCPILOT01-705-1018",2,"Randomized",NA,"PROTOCOL MILESTONE",0,"Baseline","2013-07-05","2013-07-05",NA
"CDISCPILOT01","DS","CDISCPILOT01-705-1018",3,"Patient Withdrew Consent",NA,"DISPOSITION EVENT",2,"Week 2","2013-07-12","2013-07-12",NA
"CDISCPILOT01","DS","CDISCPILOT01-705-1031",1,"Randomized",NA,"PROTOCOL MILESTONE",0,"Baseline","2013-11-27","2013-11-27",NA
"CDISCPILOT01","DS","CDISCPILOT01-705-1031",2,"Unable to Contact Patient (Lost to Follow-Up)",NA,"DISPOSITION EVENT",24,"Week 24","2014-05-11","2014-05-11",NA
"CDISCPILOT01","DS","CDISCPILOT01-705-1031",3,"Final Lab Visit","Final Lab Visit",NA,24,"Week 24","2014-05-11T09:55","2014-05-11",NA
"CDISCPILOT01","DS","CDISCPILOT01-705-1058",1,"Screen Failure",NA,"DISPOSITION EVENT",1,"Screening 1","2013-12-02","2013-12-02",NA
"CDISCPILOT01","DS","CDISCPILOT01-705-1059",1,"Randomized",NA,"PROTOCOL MILESTONE",0,"Baseline","2013-08-05","2013-08-05",NA
"CDISCPILOT01","DS","CDISCPILOT01-705-1059",2,"Adverse Event",NA,"DISPOSITION EVENT",16,"Week 16","2013-12-05","2013-12-05",NA
"CDISCPILOT01","DS","CDISCPILOT01-705-1059",3,"Final Lab Visit","Final Lab Visit",NA,16,"Week 16","2013-12-05T09:55","2013-12-05",NA
"CDISCPILOT01","DS","CDISCPILOT01-705-1059",4,"Final Retrieval Visit","Final Retrieval Visit",NA,NA,"Retrieval","2014-02-06","2014-02-06",NA
"CDISCPILOT01","DS","CDISCPILOT01-705-1112",1,"Screen Failure",NA,"DISPOSITION EVENT",1,"Screening 1","2014-02-23","2014-02-23",NA
"CDISCPILOT01","DS","CDISCPILOT01-705-1186",1,"Randomized",NA,"PROTOCOL MILESTONE",0,"Baseline","2014-01-08","2014-01-08",NA
"CDISCPILOT01","DS","CDISCPILOT01-705-1186",2,"Hyperbilirubinemia",NA,"DISPOSITION EVENT",4,"Week 4","2014-02-07","2014-02-07",NA
"CDISCPILOT01","DS","CDISCPILOT01-705-1186",3,"Final Lab Visit","Final Lab Visit",NA,5,"Unscheduled 5.1","2014-02-07T15:20","2014-02-07",NA
"CDISCPILOT01","DS","CDISCPILOT01-705-1199",1,"Randomized",NA,"PROTOCOL MILESTONE",0,"Baseline","2013-09-16","2013-09-16",NA
"CDISCPILOT01","DS","CDISCPILOT01-705-1199",2,"Adverse Event",NA,"DISPOSITION EVENT",2,"Week 2","2013-09-29","2013-09-29",NA
"CDISCPILOT01","DS","CDISCPILOT01-705-1199",3,"Final Lab Visit","Final Lab Visit",NA,2,"Week 2","2013-09-29T10:30","2013-09-29",NA
"CDISCPILOT01","DS","CDISCPILOT01-705-1243",1,"Screen Failure",NA,"DISPOSITION EVENT",1,"Screening 1","2013-02-26","2013-02-26",NA
"CDISCPILOT01","DS","CDISCPILOT01-705-1280",1,"Randomized",NA,"PROTOCOL MILESTONE",0,"Baseline","2014-01-17","2014-01-17",NA
"CDISCPILOT01","DS","CDISCPILOT01-705-1280",2,"Final Lab Visit","Final Lab Visit",NA,26,"Week 26","2014-07-24T15:30","2014-07-24",NA
"CDISCPILOT01","DS","CDISCPILOT01-705-1280",3,"Protocol Completed",NA,"DISPOSITION EVENT",26,"Week 26","2014-07-25","2014-07-25",NA
"CDISCPILOT01","DS","CDISCPILOT01-705-1281",1,"Randomized",NA,"PROTOCOL MILESTONE",0,"Baseline","2013-11-28","2013-11-28",NA
"CDISCPILOT01","DS","CDISCPILOT01-705-1281",2,"Adverse Event",NA,"DISPOSITION EVENT",16,"Week 16","2014-03-17","2014-03-17",NA
"CDISCPILOT01","DS","CDISCPILOT01-705-1281",3,"Final Lab Visit","Final Lab Visit",NA,16,"Week 16","2014-03-17T09:50","2014-03-17",NA
"CDISCPILOT01","DS","CDISCPILOT01-705-1282",1,"Randomized",NA,"PROTOCOL MILESTONE",0,"Baseline","2012-12-26","2012-12-26",NA
"CDISCPILOT01","DS","CDISCPILOT01-705-1282",2,"Protocol Completed",NA,"DISPOSITION EVENT",26,"Week 26","2013-06-24","2013-06-24",NA
"CDISCPILOT01","DS","CDISCPILOT01-705-1282",3,"Final Lab Visit","Final Lab Visit",NA,26,"Week 26","2013-06-24T15:25","2013-06-24",NA
"CDISCPILOT01","DS","CDISCPILOT01-705-1292",1,"Randomized",NA,"PROTOCOL MILESTONE",0,"Baseline","2013-10-14","2013-10-14",NA
"CDISCPILOT01","DS","CDISCPILOT01-705-1292",2,"Protocol Completed",NA,"DISPOSITION EVENT",26,"Week 26","2014-05-14","2014-05-14",NA
"CDISCPILOT01","DS","CDISCPILOT01-705-1292",3,"Final Lab Visit","Final Lab Visit",NA,26,"Week 26","2014-05-14T13:33","2014-05-14",NA
"CDISCPILOT01","DS","CDISCPILOT01-705-1303",1,"Randomized",NA,"PROTOCOL MILESTONE",0,"Baseline","2013-12-16","2013-12-16",NA
"CDISCPILOT01","DS","CDISCPILOT01-705-1303",2,"Final Lab Visit","Final Lab Visit",NA,16,"Week 16","2014-04-07T14:27","2014-04-07",NA
"CDISCPILOT01","DS","CDISCPILOT01-705-1303",3,"Adverse Event",NA,"DISPOSITION EVENT",20,"Week 20","2014-06-02","2014-06-02",NA
"CDISCPILOT01","DS","CDISCPILOT01-705-1310",1,"Randomized",NA,"PROTOCOL MILESTONE",0,"Baseline","2013-11-02","2013-11-02",NA
"CDISCPILOT01","DS","CDISCPILOT01-705-1310",2,"Adverse Event",NA,"DISPOSITION EVENT",12,"Week 12","2014-01-23","2014-01-23",NA
"CDISCPILOT01","DS","CDISCPILOT01-705-1310",3,"Final Lab Visit","Final Lab Visit",NA,12,"Week 12","2014-01-23T09:40","2014-01-23",NA
"CDISCPILOT01","DS","CDISCPILOT01-705-1349",1,"Randomized",NA,"PROTOCOL MILESTONE",0,"Baseline","2013-03-10","2013-03-10",NA
"CDISCPILOT01","DS","CDISCPILOT01-705-1349",2,"Protocol Completed",NA,"DISPOSITION EVENT",26,"Week 26","2013-09-08","2013-09-08",NA
"CDISCPILOT01","DS","CDISCPILOT01-705-1349",3,"Final Lab Visit","Final Lab Visit",NA,26,"Week 26","2013-09-08T10:10","2013-09-08",NA
"CDISCPILOT01","DS","CDISCPILOT01-705-1377",1,"Randomized",NA,"PROTOCOL MILESTONE",0,"Baseline","2014-01-04","2014-01-04",NA
"CDISCPILOT01","DS","CDISCPILOT01-705-1377",2,"Final Lab Visit","Final Lab Visit",NA,4,"Week 4","2014-02-07T09:25","2014-02-07",NA
"CDISCPILOT01","DS","CDISCPILOT01-705-1377",3,"Patient Withdrew Consent",NA,"DISPOSITION EVENT",6,"Week 6","2014-03-07","2014-03-07",NA
"CDISCPILOT01","DS","CDISCPILOT01-705-1382",1,"Final Lab Visit","Final Lab Visit",NA,1,"Screening 1","2013-05-09T11:15","2013-05-09",NA
"CDISCPILOT01","DS","CDISCPILOT01-705-1382",2,"Protocol Entry Criteria not Met",NA,"DISPOSITION EVENT",2,"Week 2","2013-05-13","2013-05-13",NA
"CDISCPILOT01","DS","CDISCPILOT01-705-1382",3,"Randomized",NA,"PROTOCOL MILESTONE",0,"Baseline","2013-05-13","2013-05-13",NA
"CDISCPILOT01","DS","CDISCPILOT01-705-1393",1,"Randomized",NA,"PROTOCOL MILESTONE",0,"Baseline","2012-09-07","2012-09-07",NA
"CDISCPILOT01","DS","CDISCPILOT01-705-1393",2,"Adverse Event",NA,"DISPOSITION EVENT",20,"Week 20","2013-02-20","2013-02-20",NA
"CDISCPILOT01","DS","CDISCPILOT01-705-1393",3,"Final Lab Visit","Final Lab Visit",NA,20,"Week 20","2013-02-20T16:35","2013-02-20",NA
"CDISCPILOT01","DS","CDISCPILOT01-705-1421",1,"Screen Failure",NA,"DISPOSITION EVENT",1,"Screening 1","2013-01-14","2013-01-14",NA
"CDISCPILOT01","DS","CDISCPILOT01-705-1431",1,"Randomized",NA,"PROTOCOL MILESTONE",0,"Baseline","2013-06-23","2013-06-23",NA
"CDISCPILOT01","DS","CDISCPILOT01-705-1431",2,"Protocol Completed",NA,"DISPOSITION EVENT",26,"Week 26","2013-12-19","2013-12-19",NA
"CDISCPILOT01","DS","CDISCPILOT01-705-1431",3,"Final Lab Visit","Final Lab Visit",NA,26,"Week 26","2013-12-19T10:05","2013-12-19",NA
"CDISCPILOT01","DS","CDISCPILOT01-706-1041",1,"Randomized",NA,"PROTOCOL MILESTONE",0,"Baseline","2013-12-31","2013-12-31",NA
"CDISCPILOT01","DS","CDISCPILOT01-706-1041",2,"Protocol Completed",NA,"DISPOSITION EVENT",26,"Week 26","2014-07-29","2014-07-29",NA
"CDISCPILOT01","DS","CDISCPILOT01-706-1041",3,"Final Lab Visit","Final Lab Visit",NA,26,"Week 26","2014-07-29T13:45","2014-07-29",NA
"CDISCPILOT01","DS","CDISCPILOT01-706-1049",1,"Randomized",NA,"PROTOCOL MILESTONE",0,"Baseline","2013-05-14","2013-05-14",NA
"CDISCPILOT01","DS","CDISCPILOT01-706-1049",2,"Adverse Event",NA,"DISPOSITION EVENT",6,"Week 6","2013-06-25","2013-06-25",NA
"CDISCPILOT01","DS","CDISCPILOT01-706-1049",3,"Final Lab Visit","Final Lab Visit",NA,6,"Week 6","2013-06-25T11:00","2013-06-25",NA
"CDISCPILOT01","DS","CDISCPILOT01-706-1049",4,"Final Retrieval Visit","Final Retrieval Visit",NA,NA,"Retrieval","2013-11-26","2013-11-26",NA
"CDISCPILOT01","DS","CDISCPILOT01-706-1384",1,"Randomized",NA,"PROTOCOL MILESTONE",0,"Baseline","2012-09-15","2012-09-15",NA
"CDISCPILOT01","DS","CDISCPILOT01-706-1384",2,"Adverse Event",NA,"DISPOSITION EVENT",2,"Week 2","2012-09-29","2012-09-29",NA
"CDISCPILOT01","DS","CDISCPILOT01-706-1384",3,"Final Lab Visit","Final Lab Visit",NA,2,"Week 2","2012-09-29T10:00","2012-09-29",NA
"CDISCPILOT01","DS","CDISCPILOT01-706-1384",4,"Final Retrieval Visit","Final Retrieval Visit",NA,NA,"Retrieval","2013-06-22","2013-06-22",NA
"CDISCPILOT01","DS","CDISCPILOT01-707-1037",1,"Randomized",NA,"PROTOCOL MILESTONE",0,"Baseline","2013-12-20","2013-12-20",NA
"CDISCPILOT01","DS","CDISCPILOT01-707-1037",2,"Withdraws Consent",NA,"DISPOSITION EVENT",2,"Week 2","2014-01-08","2014-01-08",NA
"CDISCPILOT01","DS","CDISCPILOT01-707-1037",3,"Final Lab Visit","Final Lab Visit",NA,2,"Week 2","2014-01-08T12:40","2014-01-08",NA
"CDISCPILOT01","DS","CDISCPILOT01-707-1206",1,"Randomized",NA,"PROTOCOL MILESTONE",0,"Baseline","2013-10-28","2013-10-28",NA
"CDISCPILOT01","DS","CDISCPILOT01-707-1206",2,"Protocol Completed",NA,"DISPOSITION EVENT",26,"Week 26","2014-04-27","2014-04-27",NA
"CDISCPILOT01","DS","CDISCPILOT01-707-1206",3,"Final Lab Visit","Final Lab Visit",NA,26,"Week 26","2014-04-27T08:00","2014-04-27",NA
"CDISCPILOT01","DS","CDISCPILOT01-707-1276",1,"Screen Failure",NA,"DISPOSITION EVENT",1,"Screening 1","2012-10-12","2012-10-12",NA
"CDISCPILOT01","DS","CDISCPILOT01-707-1430",1,"Screen Failure",NA,"DISPOSITION EVENT",1,"Screening 1","2014-02-14","2014-02-14",NA
"CDISCPILOT01","DS","CDISCPILOT01-707-1434",1,"Screen Failure",NA,"DISPOSITION EVENT",1,"Screening 1","2013-07-25","2013-07-25",NA
"CDISCPILOT01","DS","CDISCPILOT01-708-1013",1,"Screen Failure",NA,"DISPOSITION EVENT",1,"Screening 1","2012-10-13","2012-10-13",NA
"CDISCPILOT01","DS","CDISCPILOT01-708-1019",1,"Randomized",NA,"PROTOCOL MILESTONE",0,"Baseline","2013-12-20","2013-12-20",NA
"CDISCPILOT01","DS","CDISCPILOT01-708-1019",2,"Adverse Event",NA,"DISPOSITION EVENT",2,"Week 2","2014-01-23","2014-01-23",NA
"CDISCPILOT01","DS","CDISCPILOT01-708-1019",3,"Final Lab Visit","Final Lab Visit",NA,2,"Week 2","2014-01-23T10:10","2014-01-23",NA
"CDISCPILOT01","DS","CDISCPILOT01-708-1032",1,"Randomized",NA,"PROTOCOL MILESTONE",0,"Baseline","2013-02-09","2013-02-09",NA
"CDISCPILOT01","DS","CDISCPILOT01-708-1032",2,"Adverse Event",NA,"DISPOSITION EVENT",4,"Week 4","2013-03-09","2013-03-09",NA
"CDISCPILOT01","DS","CDISCPILOT01-708-1032",3,"Final Lab Visit","Final Lab Visit",NA,4,"Week 4","2013-03-09T10:45","2013-03-09",NA
"CDISCPILOT01","DS","CDISCPILOT01-708-1054",1,"Screen Failure",NA,"DISPOSITION EVENT",1,"Screening 1","2014-02-14","2014-02-14",NA
"CDISCPILOT01","DS","CDISCPILOT01-708-1067",1,"Screen Failure",NA,"DISPOSITION EVENT",1,"Screening 1","2013-02-07","2013-02-07",NA
"CDISCPILOT01","DS","CDISCPILOT01-708-1084",1,"Randomized",NA,"PROTOCOL MILESTONE",0,"Baseline","2013-05-09","2013-05-09",NA
"CDISCPILOT01","DS","CDISCPILOT01-708-1084",2,"Protocol Completed",NA,"DISPOSITION EVENT",26,"Week 26","2013-11-11","2013-11-11",NA
"CDISCPILOT01","DS","CDISCPILOT01-708-1084",3,"Final Lab Visit","Final Lab Visit",NA,26,"Week 26","2013-11-11T10:00","2013-11-11",NA
"CDISCPILOT01","DS","CDISCPILOT01-708-1087",1,"Randomized",NA,"PROTOCOL MILESTONE",0,"Baseline","2012-10-22","2012-10-22",NA
"CDISCPILOT01","DS","CDISCPILOT01-708-1087",2,"Protocol Completed",NA,"DISPOSITION EVENT",26,"Week 26","2013-04-28","2013-04-28",NA
"CDISCPILOT01","DS","CDISCPILOT01-708-1087",3,"Final Lab Visit","Final Lab Visit",NA,26,"Week 26","2013-04-28T12:40","2013-04-28",NA
"CDISCPILOT01","DS","CDISCPILOT01-708-1104",1,"Screen Failure",NA,"DISPOSITION EVENT",1,"Screening 1","2014-01-23","2014-01-23",NA
"CDISCPILOT01","DS","CDISCPILOT01-708-1158",1,"Randomized",NA,"PROTOCOL MILESTONE",0,"Baseline","2014-02-08","2014-02-08",NA
"CDISCPILOT01","DS","CDISCPILOT01-708-1158",2,"Adverse Event",NA,"DISPOSITION EVENT",6,"Week 6","2014-03-22","2014-03-22",NA
"CDISCPILOT01","DS","CDISCPILOT01-708-1158",3,"Final Lab Visit","Final Lab Visit",NA,6,"Week 6","2014-03-22T11:15","2014-03-22",NA
"CDISCPILOT01","DS","CDISCPILOT01-708-1171",1,"Randomized",NA,"PROTOCOL MILESTONE",0,"Baseline","2012-12-06","2012-12-06",NA
"CDISCPILOT01","DS","CDISCPILOT01-708-1171",2,"Final Lab Visit","Final Lab Visit",NA,26,"Week 26","2013-06-03T10:40","2013-06-03",NA
"CDISCPILOT01","DS","CDISCPILOT01-708-1171",3,"Protocol Completed",NA,"DISPOSITION EVENT",26,"Week 26","2013-06-04","2013-06-04",NA
"CDISCPILOT01","DS","CDISCPILOT01-708-1178",1,"Randomized",NA,"PROTOCOL MILESTONE",0,"Baseline","2013-12-29","2013-12-29",NA
"CDISCPILOT01","DS","CDISCPILOT01-708-1178",2,"Dr Put Pt on an Excluded Medication",NA,"DISPOSITION EVENT",12,"Week 12","2014-04-06","2014-04-06",NA
"CDISCPILOT01","DS","CDISCPILOT01-708-1178",3,"Final Lab Visit","Final Lab Visit",NA,12,"Week 12","2014-04-06T08:50","2014-04-06",NA
"CDISCPILOT01","DS","CDISCPILOT01-708-1184",1,"Screen Failure",NA,"DISPOSITION EVENT",1,"Screening 1","2013-01-14","2013-01-14",NA
"CDISCPILOT01","DS","CDISCPILOT01-708-1213",1,"Randomized",NA,"PROTOCOL MILESTONE",0,"Baseline","2013-02-09","2013-02-09",NA
"CDISCPILOT01","DS","CDISCPILOT01-708-1213",2,"Final Lab Visit","Final Lab Visit",NA,2,"Week 2","2013-02-22T11:05","2013-02-22",NA
"CDISCPILOT01","DS","CDISCPILOT01-708-1213",3,"Adverse Event",NA,"DISPOSITION EVENT",4,"Week 4","2013-02-26","2013-02-26",NA
"CDISCPILOT01","DS","CDISCPILOT01-708-1216",1,"Randomized",NA,"PROTOCOL MILESTONE",0,"Baseline","2012-10-24","2012-10-24",NA
"CDISCPILOT01","DS","CDISCPILOT01-708-1216",2,"Adverse Event",NA,"DISPOSITION EVENT",6,"Week 6","2012-12-06","2012-12-06",NA
"CDISCPILOT01","DS","CDISCPILOT01-708-1216",3,"Final Lab Visit","Final Lab Visit",NA,6,"Week 6","2012-12-06T11:50","2012-12-06",NA
"CDISCPILOT01","DS","CDISCPILOT01-708-1236",1,"Final Lab Visit","Final Lab Visit",NA,1,"Unscheduled 1.1","2013-09-19T10:35","2013-09-19",NA
"CDISCPILOT01","DS","CDISCPILOT01-708-1236",2,"Randomized",NA,"PROTOCOL MILESTONE",0,"Baseline","2013-09-21","2013-09-21",NA
"CDISCPILOT01","DS","CDISCPILOT01-708-1236",3,"Patient Withdrew Consent",NA,"DISPOSITION EVENT",2,"Week 2","2013-09-26","2013-09-26",NA
"CDISCPILOT01","DS","CDISCPILOT01-708-1242",1,"Screen Failure",NA,"DISPOSITION EVENT",1,"Screening 1","2012-08-13","2012-08-13",NA
"CDISCPILOT01","DS","CDISCPILOT01-708-1253",1,"Randomized",NA,"PROTOCOL MILESTONE",0,"Baseline","2013-05-07","2013-05-07",NA
"CDISCPILOT01","DS","CDISCPILOT01-708-1253",2,"Final Lab Visit","Final Lab Visit",NA,26,"Week 26","2013-11-04T13:40","2013-11-04",NA
"CDISCPILOT01","DS","CDISCPILOT01-708-1253",3,"Protocol Completed",NA,"DISPOSITION EVENT",26,"Week 26","2013-11-05","2013-11-05",NA
"CDISCPILOT01","DS","CDISCPILOT01-708-1272",1,"Randomized",NA,"PROTOCOL MILESTONE",0,"Baseline","2013-02-06","2013-02-06",NA
"CDISCPILOT01","DS","CDISCPILOT01-708-1272",2,"Patch Discomfort",NA,"DISPOSITION EVENT",8,"Week 8","2013-04-04","2013-04-04",NA
"CDISCPILOT01","DS","CDISCPILOT01-708-1272",3,"Final Lab Visit","Final Lab Visit",NA,8,"Week 8","2013-04-04T11:05","2013-04-04",NA
"CDISCPILOT01","DS","CDISCPILOT01-708-1286",1,"Randomized",NA,"PROTOCOL MILESTONE",0,"Baseline","2013-09-10","2013-09-10",NA
"CDISCPILOT01","DS","CDISCPILOT01-708-1286",2,"Protocol Completed",NA,"DISPOSITION EVENT",26,"Week 26","2014-03-08","2014-03-08",NA
"CDISCPILOT01","DS","CDISCPILOT01-708-1286",3,"Final Lab Visit","Final Lab Visit",NA,26,"Week 26","2014-03-08T09:50","2014-03-08",NA
"CDISCPILOT01","DS","CDISCPILOT01-708-1296",1,"Randomized",NA,"PROTOCOL MILESTONE",0,"Baseline","2013-06-14","2013-06-14",NA
"CDISCPILOT01","DS","CDISCPILOT01-708-1296",2,"Protocol Completed",NA,"DISPOSITION EVENT",26,"Week 26","2013-12-12","2013-12-12",NA
"CDISCPILOT01","DS","CDISCPILOT01-708-1296",3,"Final Lab Visit","Final Lab Visit",NA,26,"Week 26","2013-12-12T09:30","2013-12-12",NA
"CDISCPILOT01","DS","CDISCPILOT01-708-1297",1,"Randomized",NA,"PROTOCOL MILESTONE",0,"Baseline","2013-01-25","2013-01-25",NA
"CDISCPILOT01","DS","CDISCPILOT01-708-1297",2,"Adverse Event",NA,"DISPOSITION EVENT",16,"Week 16","2013-05-08","2013-05-08",NA
"CDISCPILOT01","DS","CDISCPILOT01-708-1297",3,"Final Lab Visit","Final Lab Visit",NA,16,"Week 16","2013-05-08T10:30","2013-05-08",NA
"CDISCPILOT01","DS","CDISCPILOT01-708-1316",1,"Randomized",NA,"PROTOCOL MILESTONE",0,"Baseline","2013-08-23","2013-08-23",NA
"CDISCPILOT01","DS","CDISCPILOT01-708-1316",2,"Protocol Completed",NA,"DISPOSITION EVENT",26,"Week 26","2014-03-01","2014-03-01",NA
"CDISCPILOT01","DS","CDISCPILOT01-708-1316",3,"Final Lab Visit","Final Lab Visit",NA,26,"Week 26","2014-03-01T10:25","2014-03-01",NA
"CDISCPILOT01","DS","CDISCPILOT01-708-1336",1,"Randomized",NA,"PROTOCOL MILESTONE",0,"Baseline","2012-12-07","2012-12-07",NA
"CDISCPILOT01","DS","CDISCPILOT01-708-1336",2,"Protocol Completed",NA,"DISPOSITION EVENT",26,"Week 26","2013-06-05","2013-06-05",NA
"CDISCPILOT01","DS","CDISCPILOT01-708-1336",3,"Final Lab Visit","Final Lab Visit",NA,26,"Week 26","2013-06-05","2013-06-05",NA
"CDISCPILOT01","DS","CDISCPILOT01-708-1342",1,"Randomized",NA,"PROTOCOL MILESTONE",0,"Baseline","2012-12-29","2012-12-29",NA
"CDISCPILOT01","DS","CDISCPILOT01-708-1342",2,"Protocol Completed",NA,"DISPOSITION EVENT",26,"Week 26","2013-06-28","2013-06-28",NA
"CDISCPILOT01","DS","CDISCPILOT01-708-1342",3,"Final Lab Visit","Final Lab Visit",NA,26,"Week 26","2013-06-28T09:40","2013-06-28",NA
"CDISCPILOT01","DS","CDISCPILOT01-708-1347",1,"Randomized",NA,"PROTOCOL MILESTONE",0,"Baseline","2013-04-20","2013-04-20",NA
"CDISCPILOT01","DS","CDISCPILOT01-708-1347",2,"Adverse Event",NA,"DISPOSITION EVENT",12,"Week 12","2013-06-18","2013-06-18",NA
"CDISCPILOT01","DS","CDISCPILOT01-708-1347",3,"Final Lab Visit","Final Lab Visit",NA,12,"Week 12","2013-06-18T09:20","2013-06-18",NA
"CDISCPILOT01","DS","CDISCPILOT01-708-1348",1,"Randomized",NA,"PROTOCOL MILESTONE",0,"Baseline","2013-08-05","2013-08-05",NA
"CDISCPILOT01","DS","CDISCPILOT01-708-1348",2,"Protocol Completed",NA,"DISPOSITION EVENT",26,"Week 26","2014-02-13","2014-02-13",NA
"CDISCPILOT01","DS","CDISCPILOT01-708-1348",3,"Final Lab Visit","Final Lab Visit",NA,26,"Week 26","2014-02-13T10:25","2014-02-13",NA
"CDISCPILOT01","DS","CDISCPILOT01-708-1352",1,"Screen Failure",NA,"DISPOSITION EVENT",1,"Screening 1","2013-09-16","2013-09-16",NA
"CDISCPILOT01","DS","CDISCPILOT01-708-1353",1,"Randomized",NA,"PROTOCOL MILESTONE",0,"Baseline","2013-07-04","2013-07-04",NA
"CDISCPILOT01","DS","CDISCPILOT01-708-1353",2,"Adverse Event",NA,"DISPOSITION EVENT",8,"Week 8","2013-09-10","2013-09-10",NA
"CDISCPILOT01","DS","CDISCPILOT01-708-1353",3,"Final Lab Visit","Final Lab Visit",NA,8,"Week 8","2013-09-10T13:15","2013-09-10",NA
"CDISCPILOT01","DS","CDISCPILOT01-708-1372",1,"Final Lab Visit","Final Lab Visit",NA,1,"Screening 1","2013-04-03T11:00","2013-04-03",NA
"CDISCPILOT01","DS","CDISCPILOT01-708-1372",2,"Randomized",NA,"PROTOCOL MILESTONE",0,"Baseline","2013-04-12","2013-04-12",NA
"CDISCPILOT01","DS","CDISCPILOT01-708-1372",3,"Protocol Entry Criteria not Met",NA,"DISPOSITION EVENT",2,"Week 2","2013-05-10","2013-05-10",NA
"CDISCPILOT01","DS","CDISCPILOT01-708-1378",1,"Randomized",NA,"PROTOCOL MILESTONE",0,"Baseline","2013-09-03","2013-09-03",NA
"CDISCPILOT01","DS","CDISCPILOT01-708-1378",2,"Sponsor Decision (Study or Patient Discontinued by the Sponsor)",NA,"DISPOSITION EVENT",20,"Week 20","2014-01-28","2014-01-28",NA
"CDISCPILOT01","DS","CDISCPILOT01-708-1378",3,"Final Lab Visit","Final Lab Visit",NA,20,"Week 20","2014-01-28T13:00","2014-01-28",NA
"CDISCPILOT01","DS","CDISCPILOT01-708-1406",1,"Randomized",NA,"PROTOCOL MILESTONE",0,"Baseline","2013-12-26","2013-12-26",NA
"CDISCPILOT01","DS","CDISCPILOT01-708-1406",2,"Protocol Completed",NA,"DISPOSITION EVENT",26,"Week 26","2014-07-02","2014-07-02",NA
"CDISCPILOT01","DS","CDISCPILOT01-708-1406",3,"Final Lab Visit","Final Lab Visit",NA,26,"Week 26","2014-07-02T13:45","2014-07-02",NA
"CDISCPILOT01","DS","CDISCPILOT01-708-1428",1,"Randomized",NA,"PROTOCOL MILESTONE",0,"Baseline","2013-11-09","2013-11-09",NA
"CDISCPILOT01","DS","CDISCPILOT01-708-1428",2,"Adverse Event",NA,"DISPOSITION EVENT",8,"Week 8","2014-01-31","2014-01-31",NA
"CDISCPILOT01","DS","CDISCPILOT01-708-1428",3,"Final Lab Visit","Final Lab Visit",NA,8,"Week 8","2014-01-31T11:10","2014-01-31",NA
"CDISCPILOT01","DS","CDISCPILOT01-709-1001",1,"Randomized",NA,"PROTOCOL MILESTONE",0,"Baseline","2013-10-08","2013-10-08",NA
"CDISCPILOT01","DS","CDISCPILOT01-709-1001",2,"Final Lab Visit","Final Lab Visit",NA,24,"Week 24","2014-03-17T11:10","2014-03-17",NA
"CDISCPILOT01","DS","CDISCPILOT01-709-1001",3,"Protocol Completed",NA,"DISPOSITION EVENT",26,"Week 26","2014-04-08","2014-04-08",NA
"CDISCPILOT01","DS","CDISCPILOT01-709-1007",1,"Randomized",NA,"PROTOCOL MILESTONE",0,"Baseline","2012-07-31","2012-07-31",NA
"CDISCPILOT01","DS","CDISCPILOT01-709-1007",2,"Adverse Event",NA,"DISPOSITION EVENT",4,"Week 4","2012-09-01","2012-09-01",NA
"CDISCPILOT01","DS","CDISCPILOT01-709-1007",3,"Final Lab Visit","Final Lab Visit",NA,4,"Week 4","2012-09-01T12:30","2012-09-01",NA
"CDISCPILOT01","DS","CDISCPILOT01-709-1020",1,"Randomized",NA,"PROTOCOL MILESTONE",0,"Baseline","2012-12-01","2012-12-01",NA
"CDISCPILOT01","DS","CDISCPILOT01-709-1020",2,"Protocol Completed",NA,"DISPOSITION EVENT",26,"Week 26","2013-06-01","2013-06-01",NA
"CDISCPILOT01","DS","CDISCPILOT01-709-1020",3,"Final Lab Visit","Final Lab Visit",NA,26,"Week 26","2013-06-01T10:40","2013-06-01",NA
"CDISCPILOT01","DS","CDISCPILOT01-709-1029",1,"Randomized",NA,"PROTOCOL MILESTONE",0,"Baseline","2012-12-25","2012-12-25",NA
"CDISCPILOT01","DS","CDISCPILOT01-709-1029",2,"Protocol Completed",NA,"DISPOSITION EVENT",26,"Week 26","2013-06-26","2013-06-26",NA
"CDISCPILOT01","DS","CDISCPILOT01-709-1029",3,"Final Lab Visit","Final Lab Visit",NA,26,"Week 26","2013-06-26T10:58","2013-06-26",NA
"CDISCPILOT01","DS","CDISCPILOT01-709-1081",1,"Randomized",NA,"PROTOCOL MILESTONE",0,"Baseline","2014-01-18","2014-01-18",NA
"CDISCPILOT01","DS","CDISCPILOT01-709-1081",2,"Adverse Event",NA,"DISPOSITION EVENT",16,"Week 16","2014-05-10","2014-05-10",NA
"CDISCPILOT01","DS","CDISCPILOT01-709-1081",3,"Final Lab Visit","Final Lab Visit",NA,16,"Week 16","2014-05-10T11:15","2014-05-10",NA
"CDISCPILOT01","DS","CDISCPILOT01-709-1088",1,"Randomized",NA,"PROTOCOL MILESTONE",0,"Baseline","2014-04-12","2014-04-12",NA
"CDISCPILOT01","DS","CDISCPILOT01-709-1088",2,"Protocol Completed",NA,"DISPOSITION EVENT",26,"Week 26","2014-10-09","2014-10-09",NA
"CDISCPILOT01","DS","CDISCPILOT01-709-1088",3,"Final Lab Visit","Final Lab Visit",NA,26,"Week 26","2014-10-09T13:25","2014-10-09",NA
"CDISCPILOT01","DS","CDISCPILOT01-709-1099",1,"Randomized",NA,"PROTOCOL MILESTONE",0,"Baseline","2013-10-25","2013-10-25",NA
"CDISCPILOT01","DS","CDISCPILOT01-709-1099",2,"Protocol Completed",NA,"DISPOSITION EVENT",26,"Week 26","2014-04-25","2014-04-25",NA
"CDISCPILOT01","DS","CDISCPILOT01-709-1099",3,"Final Lab Visit","Final Lab Visit",NA,26,"Week 26","2014-04-25T09:10","2014-04-25",NA
"CDISCPILOT01","DS","CDISCPILOT01-709-1102",1,"Randomized",NA,"PROTOCOL MILESTONE",0,"Baseline","2013-01-15","2013-01-15",NA
"CDISCPILOT01","DS","CDISCPILOT01-709-1102",2,"Adverse Event",NA,"DISPOSITION EVENT",12,"Week 12","2013-03-31","2013-03-31",NA
"CDISCPILOT01","DS","CDISCPILOT01-709-1102",3,"Final Lab Visit","Final Lab Visit",NA,12,"Week 12","2013-03-31T12:15","2013-03-31",NA
"CDISCPILOT01","DS","CDISCPILOT01-709-1168",1,"Randomized",NA,"PROTOCOL MILESTONE",0,"Baseline","2013-08-02","2013-08-02",NA
"CDISCPILOT01","DS","CDISCPILOT01-709-1168",2,"Adverse Event",NA,"DISPOSITION EVENT",8,"Week 8","2013-09-27","2013-09-27",NA
"CDISCPILOT01","DS","CDISCPILOT01-709-1168",3,"Final Lab Visit","Final Lab Visit",NA,8,"Week 8","2013-09-27T10:05","2013-09-27",NA
"CDISCPILOT01","DS","CDISCPILOT01-709-1217",1,"Randomized",NA,"PROTOCOL MILESTONE",0,"Baseline","2013-03-04","2013-03-04",NA
"CDISCPILOT01","DS","CDISCPILOT01-709-1217",2,"Adverse Event",NA,"DISPOSITION EVENT",16,"Week 16","2013-06-25","2013-06-25",NA
"CDISCPILOT01","DS","CDISCPILOT01-709-1217",3,"Final Lab Visit","Final Lab Visit",NA,16,"Week 16","2013-06-25T10:35","2013-06-25",NA
"CDISCPILOT01","DS","CDISCPILOT01-709-1224",1,"Screen Failure",NA,"DISPOSITION EVENT",1,"Screening 1","2013-11-18","2013-11-18",NA
"CDISCPILOT01","DS","CDISCPILOT01-709-1237",1,"Screen Failure",NA,"DISPOSITION EVENT",1,"Screening 1","2014-01-17","2014-01-17",NA
"CDISCPILOT01","DS","CDISCPILOT01-709-1238",1,"Randomized",NA,"PROTOCOL MILESTONE",0,"Baseline","2013-05-15","2013-05-15",NA
"CDISCPILOT01","DS","CDISCPILOT01-709-1238",2,"Adverse Event",NA,"DISPOSITION EVENT",12,"Week 12","2013-08-07","2013-08-07",NA
"CDISCPILOT01","DS","CDISCPILOT01-709-1238",3,"Final Lab Visit","Final Lab Visit",NA,12,"Week 12","2013-08-07T13:20","2013-08-07",NA
"CDISCPILOT01","DS","CDISCPILOT01-709-1259",1,"Randomized",NA,"PROTOCOL MILESTONE",0,"Baseline","2013-01-26","2013-01-26",NA
"CDISCPILOT01","DS","CDISCPILOT01-709-1259",2,"Lack of Efficacy, Patient Caregiver Perception",NA,"DISPOSITION EVENT",20,"Week 20","2013-06-13","2013-06-13",NA
"CDISCPILOT01","DS","CDISCPILOT01-709-1259",3,"Final Lab Visit","Final Lab Visit",NA,20,"Week 20","2013-06-13T12:23","2013-06-13",NA
"CDISCPILOT01","DS","CDISCPILOT01-709-1285",1,"Randomized",NA,"PROTOCOL MILESTONE",0,"Baseline","2013-03-24","2013-03-24",NA
"CDISCPILOT01","DS","CDISCPILOT01-709-1285",2,"Sponsor Decision (Study or Patient Discontinued by the Sponsor)",NA,"DISPOSITION EVENT",12,"Week 12","2013-05-31","2013-05-31",NA
"CDISCPILOT01","DS","CDISCPILOT01-709-1285",3,"Final Lab Visit","Final Lab Visit",NA,12,"Week 12","2013-05-31T13:15","2013-05-31",NA
"CDISCPILOT01","DS","CDISCPILOT01-709-1301",1,"Randomized",NA,"PROTOCOL MILESTONE",0,"Baseline","2013-07-19","2013-07-19",NA
"CDISCPILOT01","DS","CDISCPILOT01-709-1301",2,"Protocol Completed",NA,"DISPOSITION EVENT",26,"Week 26","2014-01-17","2014-01-17",NA
"CDISCPILOT01","DS","CDISCPILOT01-709-1301",3,"Final Lab Visit","Final Lab Visit",NA,26,"Week 26","2014-01-17T10:07","2014-01-17",NA
"CDISCPILOT01","DS","CDISCPILOT01-709-1306",1,"Randomized",NA,"PROTOCOL MILESTONE",0,"Baseline","2014-02-03","2014-02-03",NA
"CDISCPILOT01","DS","CDISCPILOT01-709-1306",2,"Adverse Event",NA,"DISPOSITION EVENT",20,"Week 20","2014-06-25","2014-06-25",NA
"CDISCPILOT01","DS","CDISCPILOT01-709-1306",3,"Final Lab Visit","Final Lab Visit",NA,20,"Week 20","2014-06-25T10:45","2014-06-25",NA
"CDISCPILOT01","DS","CDISCPILOT01-709-1309",1,"Randomized",NA,"PROTOCOL MILESTONE",0,"Baseline","2013-06-19","2013-06-19",NA
"CDISCPILOT01","DS","CDISCPILOT01-709-1309",2,"Protocol Completed",NA,"DISPOSITION EVENT",26,"Week 26","2013-12-19","2013-12-19",NA
"CDISCPILOT01","DS","CDISCPILOT01-709-1309",3,"Final Lab Visit","Final Lab Visit",NA,26,"Week 26","2013-12-19T10:35","2013-12-19",NA
"CDISCPILOT01","DS","CDISCPILOT01-709-1312",1,"Randomized",NA,"PROTOCOL MILESTONE",0,"Baseline","2014-04-20","2014-04-20",NA
"CDISCPILOT01","DS","CDISCPILOT01-709-1312",2,"Protocol Completed",NA,"DISPOSITION EVENT",26,"Week 26","2014-10-19","2014-10-19",NA
"CDISCPILOT01","DS","CDISCPILOT01-709-1312",3,"Final Lab Visit","Final Lab Visit",NA,26,"Week 26","2014-10-19T10:00","2014-10-19",NA
"CDISCPILOT01","DS","CDISCPILOT01-709-1326",1,"Randomized",NA,"PROTOCOL MILESTONE",0,"Baseline","2013-04-05","2013-04-05",NA
"CDISCPILOT01","DS","CDISCPILOT01-709-1326",2,"Protocol Completed",NA,"DISPOSITION EVENT",26,"Week 26","2013-10-02","2013-10-02",NA
"CDISCPILOT01","DS","CDISCPILOT01-709-1326",3,"Final Lab Visit","Final Lab Visit",NA,26,"Week 26","2013-10-02T09:40","2013-10-02",NA
"CDISCPILOT01","DS","CDISCPILOT01-709-1329",1,"Randomized",NA,"PROTOCOL MILESTONE",0,"Baseline","2013-08-15","2013-08-15",NA
"CDISCPILOT01","DS","CDISCPILOT01-709-1329",2,"Caregiver Burden",NA,"DISPOSITION EVENT",2,"Week 2","2013-08-29","2013-08-29",NA
"CDISCPILOT01","DS","CDISCPILOT01-709-1329",3,"Final Lab Visit","Final Lab Visit",NA,2,"Week 2","2013-08-29T10:35","2013-08-29",NA
"CDISCPILOT01","DS","CDISCPILOT01-709-1339",1,"Randomized",NA,"PROTOCOL MILESTONE",0,"Baseline","2012-12-23","2012-12-23",NA
"CDISCPILOT01","DS","CDISCPILOT01-709-1339",2,"Protocol Completed",NA,"DISPOSITION EVENT",26,"Week 26","2013-06-24","2013-06-24",NA
"CDISCPILOT01","DS","CDISCPILOT01-709-1339",3,"Final Lab Visit","Final Lab Visit",NA,26,"Week 26","2013-06-24T10:10","2013-06-24",NA
"CDISCPILOT01","DS","CDISCPILOT01-709-1424",1,"Randomized",NA,"PROTOCOL MILESTONE",0,"Baseline","2013-03-03","2013-03-03",NA
"CDISCPILOT01","DS","CDISCPILOT01-709-1424",2,"Adverse Event",NA,"DISPOSITION EVENT",2,"Week 2","2013-03-08","2013-03-08",NA
"CDISCPILOT01","DS","CDISCPILOT01-709-1424",3,"Final Lab Visit","Final Lab Visit",NA,4,"Unscheduled 4.1","2013-03-17","2013-03-17",NA
"CDISCPILOT01","DS","CDISCPILOT01-710-1002",1,"Randomized",NA,"PROTOCOL MILESTONE",0,"Baseline","2014-01-14","2014-01-14",NA
"CDISCPILOT01","DS","CDISCPILOT01-710-1002",2,"Adverse Event",NA,"DISPOSITION EVENT",2,"Week 2","2014-01-18","2014-01-18",NA
"CDISCPILOT01","DS","CDISCPILOT01-710-1002",3,"Final Lab Visit","Final Lab Visit",NA,2,"Week 2","2014-01-18T15:00","2014-01-18",NA
"CDISCPILOT01","DS","CDISCPILOT01-710-1006",1,"Randomized",NA,"PROTOCOL MILESTONE",0,"Baseline","2013-02-10","2013-02-10",NA
"CDISCPILOT01","DS","CDISCPILOT01-710-1006",2,"Protocol Completed",NA,"DISPOSITION EVENT",26,"Week 26","2013-08-10","2013-08-10",NA
"CDISCPILOT01","DS","CDISCPILOT01-710-1006",3,"Final Lab Visit","Final Lab Visit",NA,26,"Week 26","2013-08-10T10:10","2013-08-10",NA
"CDISCPILOT01","DS","CDISCPILOT01-710-1021",1,"Randomized",NA,"PROTOCOL MILESTONE",0,"Baseline","2013-09-27","2013-09-27",NA
"CDISCPILOT01","DS","CDISCPILOT01-710-1021",2,"Adverse Event",NA,"DISPOSITION EVENT",6,"Week 6","2013-11-12","2013-11-12",NA
"CDISCPILOT01","DS","CDISCPILOT01-710-1021",3,"Final Lab Visit","Final Lab Visit",NA,6,"Week 6","2013-11-12T16:35","2013-11-12",NA
"CDISCPILOT01","DS","CDISCPILOT01-710-1027",1,"Randomized",NA,"PROTOCOL MILESTONE",0,"Baseline","2014-02-28","2014-02-28",NA
"CDISCPILOT01","DS","CDISCPILOT01-710-1027",2,"Protocol Completed",NA,"DISPOSITION EVENT",26,"Week 26","2014-08-29","2014-08-29",NA
"CDISCPILOT01","DS","CDISCPILOT01-710-1027",3,"Final Lab Visit","Final Lab Visit",NA,26,"Week 26","2014-08-29T11:05","2014-08-29",NA
"CDISCPILOT01","DS","CDISCPILOT01-710-1045",1,"Randomized",NA,"PROTOCOL MILESTONE",0,"Baseline","2013-06-03","2013-06-03",NA
"CDISCPILOT01","DS","CDISCPILOT01-710-1045",2,"Adverse Event",NA,"DISPOSITION EVENT",12,"Week 12","2013-08-17","2013-08-17",NA
"CDISCPILOT01","DS","CDISCPILOT01-710-1045",3,"Final Lab Visit","Final Lab Visit",NA,12,"Week 12","2013-08-17T12:30","2013-08-17",NA
"CDISCPILOT01","DS","CDISCPILOT01-710-1053",1,"Randomized",NA,"PROTOCOL MILESTONE",0,"Baseline","2012-12-26","2012-12-26",NA
"CDISCPILOT01","DS","CDISCPILOT01-710-1053",2,"Adverse Event",NA,"DISPOSITION EVENT",8,"Week 8","2013-02-15","2013-02-15",NA
"CDISCPILOT01","DS","CDISCPILOT01-710-1053",3,"Final Lab Visit","Final Lab Visit",NA,8,"Unscheduled 8.2","2013-02-26T13:25","2013-02-26",NA
"CDISCPILOT01","DS","CDISCPILOT01-710-1060",1,"Randomized",NA,"PROTOCOL MILESTONE",0,"Baseline","2013-01-01","2013-01-01",NA
"CDISCPILOT01","DS","CDISCPILOT01-710-1060",2,"Protocol Completed",NA,"DISPOSITION EVENT",26,"Week 26","2013-07-05","2013-07-05",NA
"CDISCPILOT01","DS","CDISCPILOT01-710-1060",3,"Final Lab Visit","Final Lab Visit",NA,26,"Week 26","2013-07-05T14:40","2013-07-05",NA
"CDISCPILOT01","DS","CDISCPILOT01-710-1070",1,"Randomized",NA,"PROTOCOL MILESTONE",0,"Baseline","2012-09-08","2012-09-08",NA
"CDISCPILOT01","DS","CDISCPILOT01-710-1070",2,"Final Lab Visit","Final Lab Visit",NA,16,"Week 16","2012-12-28T11:55","2012-12-28",NA
"CDISCPILOT01","DS","CDISCPILOT01-710-1070",3,"Adverse Event",NA,"DISPOSITION EVENT",20,"Week 20","2013-02-23","2013-02-23",NA
"CDISCPILOT01","DS","CDISCPILOT01-710-1077",1,"Randomized",NA,"PROTOCOL MILESTONE",0,"Baseline","2013-11-17","2013-11-17",NA
"CDISCPILOT01","DS","CDISCPILOT01-710-1077",2,"Protocol Completed",NA,"DISPOSITION EVENT",26,"Week 26","2014-05-18","2014-05-18",NA
"CDISCPILOT01","DS","CDISCPILOT01-710-1077",3,"Final Lab Visit","Final Lab Visit",NA,26,"Week 26","2014-05-18T09:50","2014-05-18",NA
"CDISCPILOT01","DS","CDISCPILOT01-710-1078",1,"Randomized",NA,"PROTOCOL MILESTONE",0,"Baseline","2013-09-17","2013-09-17",NA
"CDISCPILOT01","DS","CDISCPILOT01-710-1078",2,"Protocol Completed",NA,"DISPOSITION EVENT",26,"Week 26","2014-03-23","2014-03-23",NA
"CDISCPILOT01","DS","CDISCPILOT01-710-1078",3,"Final Lab Visit","Final Lab Visit",NA,26,"Week 26","2014-03-23T16:00","2014-03-23",NA
"CDISCPILOT01","DS","CDISCPILOT01-710-1083",1,"Final Lab Visit","Final Lab Visit",NA,1,"Screening 1","2013-07-09T16:35","2013-07-09",NA
"CDISCPILOT01","DS","CDISCPILOT01-710-1083",2,"Randomized",NA,"PROTOCOL MILESTONE",0,"Baseline","2013-07-22","2013-07-22",NA
"CDISCPILOT01","DS","CDISCPILOT01-710-1083",3,"Death",NA,"DISPOSITION EVENT",2,"Week 2","2013-08-03","2013-08-02",NA
"CDISCPILOT01","DS","CDISCPILOT01-710-1129",1,"Screen Failure",NA,"DISPOSITION EVENT",1,"Screening 1","2013-03-05","2013-03-05",NA
"CDISCPILOT01","DS","CDISCPILOT01-710-1137",1,"Randomized",NA,"PROTOCOL MILESTONE",0,"Baseline","2013-10-11","2013-10-11",NA
"CDISCPILOT01","DS","CDISCPILOT01-710-1137",2,"Adverse Event",NA,"DISPOSITION EVENT",6,"Week 6","2013-11-13","2013-11-13",NA
"CDISCPILOT01","DS","CDISCPILOT01-710-1137",3,"Final Lab Visit","Final Lab Visit",NA,6,"Week 6","2013-11-13T11:30","2013-11-13",NA
"CDISCPILOT01","DS","CDISCPILOT01-710-1142",1,"Randomized",NA,"PROTOCOL MILESTONE",0,"Baseline","2012-10-02","2012-10-02",NA
"CDISCPILOT01","DS","CDISCPILOT01-710-1142",2,"Adverse Event",NA,"DISPOSITION EVENT",4,"Week 4","2012-10-23","2012-10-23",NA
"CDISCPILOT01","DS","CDISCPILOT01-710-1142",3,"Final Lab Visit","Final Lab Visit",NA,4,"Week 4","2012-10-23T15:20","2012-10-23",NA
"CDISCPILOT01","DS","CDISCPILOT01-710-1149",1,"Screen Failure",NA,"DISPOSITION EVENT",1,"Screening 1","2013-11-16","2013-11-16",NA
"CDISCPILOT01","DS","CDISCPILOT01-710-1154",1,"Randomized",NA,"PROTOCOL MILESTONE",0,"Baseline","2014-03-29","2014-03-29",NA
"CDISCPILOT01","DS","CDISCPILOT01-710-1154",2,"Adverse Event",NA,"DISPOSITION EVENT",6,"Week 6","2014-05-09","2014-05-09",NA
"CDISCPILOT01","DS","CDISCPILOT01-710-1154",3,"Final Lab Visit","Final Lab Visit",NA,6,"Week 6","2014-05-09T10:55","2014-05-09",NA
"CDISCPILOT01","DS","CDISCPILOT01-710-1166",1,"Randomized",NA,"PROTOCOL MILESTONE",0,"Baseline","2012-11-30","2012-11-30",NA
"CDISCPILOT01","DS","CDISCPILOT01-710-1166",2,"Adverse Event",NA,"DISPOSITION EVENT",16,"Week 16","2013-03-30","2013-03-30",NA
"CDISCPILOT01","DS","CDISCPILOT01-710-1166",3,"Final Lab Visit","Final Lab Visit",NA,16,"Week 16","2013-03-30T09:35","2013-03-30",NA
"CDISCPILOT01","DS","CDISCPILOT01-710-1183",1,"Randomized",NA,"PROTOCOL MILESTONE",0,"Baseline","2013-11-16","2013-11-16",NA
"CDISCPILOT01","DS","CDISCPILOT01-710-1183",2,"Protocol Completed",NA,"DISPOSITION EVENT",26,"Week 26","2014-05-17","2014-05-17",NA
"CDISCPILOT01","DS","CDISCPILOT01-710-1183",3,"Final Lab Visit","Final Lab Visit",NA,26,"Week 26","2014-05-17T11:55","2014-05-17",NA
"CDISCPILOT01","DS","CDISCPILOT01-710-1187",1,"Randomized",NA,"PROTOCOL MILESTONE",0,"Baseline","2012-11-10","2012-11-10",NA
"CDISCPILOT01","DS","CDISCPILOT01-710-1187",2,"Protocol Completed",NA,"DISPOSITION EVENT",26,"Week 26","2013-05-12","2013-05-12",NA
"CDISCPILOT01","DS","CDISCPILOT01-710-1187",3,"Final Lab Visit","Final Lab Visit",NA,26,"Week 26","2013-05-12T11:05","2013-05-12",NA
"CDISCPILOT01","DS","CDISCPILOT01-710-1235",1,"Randomized",NA,"PROTOCOL MILESTONE",0,"Baseline","2012-09-26","2012-09-26",NA
"CDISCPILOT01","DS","CDISCPILOT01-710-1235",2,"Protocol Completed",NA,"DISPOSITION EVENT",26,"Week 26","2013-03-27","2013-03-27",NA
"CDISCPILOT01","DS","CDISCPILOT01-710-1235",3,"Final Lab Visit","Final Lab Visit",NA,26,"Week 26","2013-03-27T09:35","2013-03-27",NA
"CDISCPILOT01","DS","CDISCPILOT01-710-1249",1,"Randomized",NA,"PROTOCOL MILESTONE",0,"Baseline","2013-12-28","2013-12-28",NA
"CDISCPILOT01","DS","CDISCPILOT01-710-1249",2,"Protocol Completed",NA,"DISPOSITION EVENT",26,"Week 26","2014-06-28","2014-06-28",NA
"CDISCPILOT01","DS","CDISCPILOT01-710-1249",3,"Final Lab Visit","Final Lab Visit",NA,26,"Week 26","2014-06-28T11:05","2014-06-28",NA
"CDISCPILOT01","DS","CDISCPILOT01-710-1257",1,"Screen Failure",NA,"DISPOSITION EVENT",1,"Screening 1","2013-11-29","2013-11-29",NA
"CDISCPILOT01","DS","CDISCPILOT01-710-1264",1,"Randomized",NA,"PROTOCOL MILESTONE",0,"Baseline","2013-06-13","2013-06-13",NA
"CDISCPILOT01","DS","CDISCPILOT01-710-1264",2,"Adverse Event",NA,"DISPOSITION EVENT",20,"Week 20","2013-10-12","2013-10-12",NA
"CDISCPILOT01","DS","CDISCPILOT01-710-1264",3,"Final Lab Visit","Final Lab Visit",NA,20,"Week 20","2013-10-12T12:18","2013-10-12",NA
"CDISCPILOT01","DS","CDISCPILOT01-710-1270",1,"Randomized",NA,"PROTOCOL MILESTONE",0,"Baseline","2014-02-12","2014-02-12",NA
"CDISCPILOT01","DS","CDISCPILOT01-710-1270",2,"Adverse Event",NA,"DISPOSITION EVENT",2,"Week 2","2014-03-01","2014-03-01",NA
"CDISCPILOT01","DS","CDISCPILOT01-710-1270",3,"Final Lab Visit","Final Lab Visit",NA,2,"Week 2","2014-03-01T12:05","2014-03-01",NA
"CDISCPILOT01","DS","CDISCPILOT01-710-1271",1,"Randomized",NA,"PROTOCOL MILESTONE",0,"Baseline","2012-09-27","2012-09-27",NA
"CDISCPILOT01","DS","CDISCPILOT01-710-1271",2,"Final Lab Visit","Final Lab Visit",NA,6,"Week 6","2012-11-08T16:30","2012-11-08",NA
"CDISCPILOT01","DS","CDISCPILOT01-710-1271",3,"Adverse Event",NA,"DISPOSITION EVENT",8,"Week 8","2012-12-02","2012-12-02",NA
"CDISCPILOT01","DS","CDISCPILOT01-710-1278",1,"Randomized",NA,"PROTOCOL MILESTONE",0,"Baseline","2012-12-24","2012-12-24",NA
"CDISCPILOT01","DS","CDISCPILOT01-710-1278",2,"Adverse Event",NA,"DISPOSITION EVENT",12,"Week 12","2013-03-03","2013-03-03",NA
"CDISCPILOT01","DS","CDISCPILOT01-710-1278",3,"Final Lab Visit","Final Lab Visit",NA,12,"Week 12","2013-03-07T11:45","2013-03-07",NA
"CDISCPILOT01","DS","CDISCPILOT01-710-1300",1,"Randomized",NA,"PROTOCOL MILESTONE",0,"Baseline","2012-12-15","2012-12-15",NA
"CDISCPILOT01","DS","CDISCPILOT01-710-1300",2,"Adverse Event",NA,"DISPOSITION EVENT",12,"Week 12","2013-02-19","2013-02-19",NA
"CDISCPILOT01","DS","CDISCPILOT01-710-1300",3,"Final Lab Visit","Final Lab Visit",NA,12,"Week 12","2013-02-19T15:50","2013-02-19",NA
"CDISCPILOT01","DS","CDISCPILOT01-710-1314",1,"Randomized",NA,"PROTOCOL MILESTONE",0,"Baseline","2013-04-24","2013-04-24",NA
"CDISCPILOT01","DS","CDISCPILOT01-710-1314",2,"Final Lab Visit","Final Lab Visit",NA,4,"Week 4","2013-05-23T14:45","2013-05-23",NA
"CDISCPILOT01","DS","CDISCPILOT01-710-1314",3,"Patient Refuses to Continue",NA,"DISPOSITION EVENT",NA,"Ambul Ecg Removal","2013-05-25","2013-05-25",NA
"CDISCPILOT01","DS","CDISCPILOT01-710-1315",1,"Randomized",NA,"PROTOCOL MILESTONE",0,"Baseline","2013-02-27","2013-02-27",NA
"CDISCPILOT01","DS","CDISCPILOT01-710-1315",2,"Adverse Event",NA,"DISPOSITION EVENT",20,"Week 20","2013-07-16","2013-07-16",NA
"CDISCPILOT01","DS","CDISCPILOT01-710-1315",3,"Final Lab Visit","Final Lab Visit",NA,20,"Week 20","2013-07-16T12:05","2013-07-16",NA
"CDISCPILOT01","DS","CDISCPILOT01-710-1337",1,"Screen Failure",NA,"DISPOSITION EVENT",1,"Screening 1","2013-12-30","2013-12-30",NA
"CDISCPILOT01","DS","CDISCPILOT01-710-1354",1,"Randomized",NA,"PROTOCOL MILESTONE",0,"Baseline","2012-11-11","2012-11-11",NA
"CDISCPILOT01","DS","CDISCPILOT01-710-1354",2,"Protocol Completed",NA,"DISPOSITION EVENT",26,"Week 26","2013-05-01","2013-05-01",NA
"CDISCPILOT01","DS","CDISCPILOT01-710-1354",3,"Final Lab Visit","Final Lab Visit",NA,26,"Week 26","2013-05-01T14:05","2013-05-01",NA
"CDISCPILOT01","DS","CDISCPILOT01-710-1358",1,"Randomized",NA,"PROTOCOL MILESTONE",0,"Baseline","2012-09-17","2012-09-17",NA
"CDISCPILOT01","DS","CDISCPILOT01-710-1358",2,"Final Lab Visit","Final Lab Visit",NA,20,"Week 20","2013-02-06T11:25","2013-02-06",NA
"CDISCPILOT01","DS","CDISCPILOT01-710-1358",3,"Caregiver Was Hospitalized;see Comments",NA,"DISPOSITION EVENT",24,"Week 24","2013-03-12","2013-03-12",NA
"CDISCPILOT01","DS","CDISCPILOT01-710-1368",1,"Randomized",NA,"PROTOCOL MILESTONE",0,"Baseline","2013-10-23","2013-10-23",NA
"CDISCPILOT01","DS","CDISCPILOT01-710-1368",2,"Protocol Completed",NA,"DISPOSITION EVENT",26,"Week 26","2014-04-24","2014-04-24",NA
"CDISCPILOT01","DS","CDISCPILOT01-710-1368",3,"Final Lab Visit","Final Lab Visit",NA,26,"Week 26","2014-04-24T10:10","2014-04-24",NA
"CDISCPILOT01","DS","CDISCPILOT01-710-1376",1,"Screen Failure",NA,"DISPOSITION EVENT",1,"Screening 1","2014-04-21","2014-04-21",NA
"CDISCPILOT01","DS","CDISCPILOT01-710-1380",1,"Screen Failure",NA,"DISPOSITION EVENT",1,"Screening 1","2013-06-02","2013-06-02",NA
"CDISCPILOT01","DS","CDISCPILOT01-710-1385",1,"Randomized",NA,"PROTOCOL MILESTONE",0,"Baseline","2012-10-29","2012-10-29",NA
"CDISCPILOT01","DS","CDISCPILOT01-710-1385",2,"Adverse Event",NA,"DISPOSITION EVENT",16,"Week 16","2013-02-18","2013-02-18",NA
"CDISCPILOT01","DS","CDISCPILOT01-710-1385",3,"Final Lab Visit","Final Lab Visit",NA,16,"Week 16","2013-02-18T13:40","2013-02-18",NA
"CDISCPILOT01","DS","CDISCPILOT01-710-1408",1,"Randomized",NA,"PROTOCOL MILESTONE",0,"Baseline","2013-01-05","2013-01-05",NA
"CDISCPILOT01","DS","CDISCPILOT01-710-1408",2,"Protocol Completed",NA,"DISPOSITION EVENT",26,"Week 26","2013-07-12","2013-07-12",NA
"CDISCPILOT01","DS","CDISCPILOT01-710-1408",3,"Final Lab Visit","Final Lab Visit",NA,26,"Week 26","2013-07-12T14:35","2013-07-12",NA
"CDISCPILOT01","DS","CDISCPILOT01-710-1443",1,"Screen Failure",NA,"DISPOSITION EVENT",1,"Screening 1","2013-12-13","2013-12-13",NA
"CDISCPILOT01","DS","CDISCPILOT01-711-1012",1,"Randomized",NA,"PROTOCOL MILESTONE",0,"Baseline","2013-04-03","2013-04-03",NA
"CDISCPILOT01","DS","CDISCPILOT01-711-1012",2,"Adverse Event",NA,"DISPOSITION EVENT",4,"Week 4","2013-05-02","2013-05-02",NA
"CDISCPILOT01","DS","CDISCPILOT01-711-1012",3,"Final Lab Visit","Final Lab Visit",NA,4,"Week 4","2013-05-02T09:40","2013-05-02",NA
"CDISCPILOT01","DS","CDISCPILOT01-711-1012",4,"Final Retrieval Visit","Final Retrieval Visit",NA,NA,"Retrieval","2013-09-18","2013-09-18",NA
"CDISCPILOT01","DS","CDISCPILOT01-711-1022",1,"Screen Failure",NA,"DISPOSITION EVENT",1,"Screening 1","2014-03-17","2014-03-17",NA
"CDISCPILOT01","DS","CDISCPILOT01-711-1036",1,"Randomized",NA,"PROTOCOL MILESTONE",0,"Baseline","2012-07-29","2012-07-29",NA
"CDISCPILOT01","DS","CDISCPILOT01-711-1036",2,"Protocol Completed",NA,"DISPOSITION EVENT",26,"Week 26","2013-02-10","2013-02-10",NA
"CDISCPILOT01","DS","CDISCPILOT01-711-1036",3,"Final Lab Visit","Final Lab Visit",NA,26,"Week 26","2013-02-10T10:25","2013-02-10",NA
"CDISCPILOT01","DS","CDISCPILOT01-711-1143",1,"Randomized",NA,"PROTOCOL MILESTONE",0,"Baseline","2013-04-03","2013-04-03",NA
"CDISCPILOT01","DS","CDISCPILOT01-711-1143",2,"Adverse Event",NA,"DISPOSITION EVENT",12,"Week 12","2013-06-01","2013-06-01",NA
"CDISCPILOT01","DS","CDISCPILOT01-711-1143",3,"Final Lab Visit","Final Lab Visit",NA,12,"Week 12","2013-06-01T13:11","2013-06-01",NA
"CDISCPILOT01","DS","CDISCPILOT01-711-1143",4,"Final Retrieval Visit","Final Retrieval Visit",NA,NA,"Retrieval","2013-09-22","2013-09-22",NA
"CDISCPILOT01","DS","CDISCPILOT01-711-1163",1,"Screen Failure",NA,"DISPOSITION EVENT",1,"Screening 1","2012-11-08","2012-11-08",NA
"CDISCPILOT01","DS","CDISCPILOT01-711-1173",1,"Screen Failure",NA,"DISPOSITION EVENT",1,"Screening 1","2012-10-04","2012-10-04",NA
"CDISCPILOT01","DS","CDISCPILOT01-711-1226",1,"Screen Failure",NA,"DISPOSITION EVENT",1,"Screening 1","2013-10-24","2013-10-24",NA
"CDISCPILOT01","DS","CDISCPILOT01-711-1251",1,"Screen Failure",NA,"DISPOSITION EVENT",1,"Screening 1","2014-02-28","2014-02-28",NA
"CDISCPILOT01","DS","CDISCPILOT01-711-1283",1,"Screen Failure",NA,"DISPOSITION EVENT",1,"Screening 1","2014-03-27","2014-03-27",NA
"CDISCPILOT01","DS","CDISCPILOT01-711-1284",1,"Screen Failure",NA,"DISPOSITION EVENT",1,"Screening 1","2013-08-05","2013-08-05",NA
"CDISCPILOT01","DS","CDISCPILOT01-711-1290",1,"Screen Failure",NA,"DISPOSITION EVENT",1,"Screening 1","2013-12-20","2013-12-20",NA
"CDISCPILOT01","DS","CDISCPILOT01-711-1433",1,"Randomized",NA,"PROTOCOL MILESTONE",0,"Baseline","2013-01-27","2013-01-27",NA
"CDISCPILOT01","DS","CDISCPILOT01-711-1433",2,"Adverse Event",NA,"DISPOSITION EVENT",2,"Week 2","2013-02-06","2013-02-06",NA
"CDISCPILOT01","DS","CDISCPILOT01-711-1433",3,"Final Lab Visit","Final Lab Visit",NA,2,"Week 2","2013-02-06T10:52","2013-02-06",NA
"CDISCPILOT01","DS","CDISCPILOT01-713-1043",1,"Randomized",NA,"PROTOCOL MILESTONE",0,"Baseline","2013-09-15","2013-09-15",NA
"CDISCPILOT01","DS","CDISCPILOT01-713-1043",2,"Protocol Completed",NA,"DISPOSITION EVENT",26,"Week 26","2014-03-24","2014-03-24",NA
"CDISCPILOT01","DS","CDISCPILOT01-713-1043",3,"Final Lab Visit","Final Lab Visit",NA,26,"Week 26","2014-03-24T14:30","2014-03-24",NA
"CDISCPILOT01","DS","CDISCPILOT01-713-1073",1,"Randomized",NA,"PROTOCOL MILESTONE",0,"Baseline","2014-03-30","2014-03-30",NA
"CDISCPILOT01","DS","CDISCPILOT01-713-1073",2,"Protocol Completed",NA,"DISPOSITION EVENT",26,"Week 26","2014-10-05","2014-10-05",NA
"CDISCPILOT01","DS","CDISCPILOT01-713-1073",3,"Final Lab Visit","Final Lab Visit",NA,26,"Week 26","2014-10-05T10:30","2014-10-05",NA
"CDISCPILOT01","DS","CDISCPILOT01-713-1106",1,"Randomized",NA,"PROTOCOL MILESTONE",0,"Baseline","2012-10-31","2012-10-31",NA
"CDISCPILOT01","DS","CDISCPILOT01-713-1106",2,"Protocol Completed",NA,"DISPOSITION EVENT",26,"Week 26","2013-05-06","2013-05-06",NA
"CDISCPILOT01","DS","CDISCPILOT01-713-1106",3,"Final Lab Visit","Final Lab Visit",NA,26,"Week 26","2013-05-06T11:25","2013-05-06",NA
"CDISCPILOT01","DS","CDISCPILOT01-713-1141",1,"Randomized",NA,"PROTOCOL MILESTONE",0,"Baseline","2013-05-31","2013-05-31",NA
"CDISCPILOT01","DS","CDISCPILOT01-713-1141",2,"Adverse Event",NA,"DISPOSITION EVENT",6,"Week 6","2013-08-06","2013-08-06",NA
"CDISCPILOT01","DS","CDISCPILOT01-713-1141",3,"Final Lab Visit","Final Lab Visit",NA,6,"Week 6","2013-08-06T12:00","2013-08-06",NA
"CDISCPILOT01","DS","CDISCPILOT01-713-1179",1,"Randomized",NA,"PROTOCOL MILESTONE",0,"Baseline","2013-08-09","2013-08-09",NA
"CDISCPILOT01","DS","CDISCPILOT01-713-1179",2,"Protocol Completed",NA,"DISPOSITION EVENT",26,"Week 26","2014-02-05","2014-02-05",NA
"CDISCPILOT01","DS","CDISCPILOT01-713-1179",3,"Final Lab Visit","Final Lab Visit",NA,26,"Week 26","2014-02-05T15:15","2014-02-05",NA
"CDISCPILOT01","DS","CDISCPILOT01-713-1209",1,"Randomized",NA,"PROTOCOL MILESTONE",0,"Baseline","2013-05-27","2013-05-27",NA
"CDISCPILOT01","DS","CDISCPILOT01-713-1209",2,"Protocol Completed",NA,"DISPOSITION EVENT",26,"Week 26","2013-11-22","2013-11-22",NA
"CDISCPILOT01","DS","CDISCPILOT01-713-1209",3,"Final Lab Visit","Final Lab Visit",NA,26,"Week 26","2013-11-22T10:05","2013-11-22",NA
"CDISCPILOT01","DS","CDISCPILOT01-713-1256",1,"Randomized",NA,"PROTOCOL MILESTONE",0,"Baseline","2012-09-19","2012-09-19",NA
"CDISCPILOT01","DS","CDISCPILOT01-713-1256",2,"Protocol Completed",NA,"DISPOSITION EVENT",26,"Week 26","2013-03-25","2013-03-25",NA
"CDISCPILOT01","DS","CDISCPILOT01-713-1256",3,"Final Lab Visit","Final Lab Visit",NA,26,"Week 26","2013-03-25T10:30","2013-03-25",NA
"CDISCPILOT01","DS","CDISCPILOT01-713-1269",1,"Randomized",NA,"PROTOCOL MILESTONE",0,"Baseline","2014-01-27","2014-01-27",NA
"CDISCPILOT01","DS","CDISCPILOT01-713-1269",2,"Protocol Completed",NA,"DISPOSITION EVENT",26,"Week 26","2014-07-28","2014-07-28",NA
"CDISCPILOT01","DS","CDISCPILOT01-713-1269",3,"Final Lab Visit","Final Lab Visit",NA,26,"Week 26","2014-07-28T14:00","2014-07-28",NA
"CDISCPILOT01","DS","CDISCPILOT01-713-1448",1,"Randomized",NA,"PROTOCOL MILESTONE",0,"Baseline","2014-01-19","2014-01-19",NA
"CDISCPILOT01","DS","CDISCPILOT01-713-1448",2,"Adverse Event",NA,"DISPOSITION EVENT",16,"Week 16","2014-05-17","2014-05-17",NA
"CDISCPILOT01","DS","CDISCPILOT01-713-1448",3,"Final Lab Visit","Final Lab Visit",NA,16,"Week 16","2014-05-17T11:00","2014-05-17",NA
"CDISCPILOT01","DS","CDISCPILOT01-713-1448",4,"Final Retrieval Visit","Final Retrieval Visit",NA,NA,"Retrieval","2014-07-27","2014-07-27",NA
"CDISCPILOT01","DS","CDISCPILOT01-714-1035",1,"Randomized",NA,"PROTOCOL MILESTONE",0,"Baseline","2014-04-17","2014-04-17",NA
"CDISCPILOT01","DS","CDISCPILOT01-714-1035",2,"Protocol Completed",NA,"DISPOSITION EVENT",26,"Week 26","2014-10-16","2014-10-16",NA
"CDISCPILOT01","DS","CDISCPILOT01-714-1035",3,"Final Lab Visit","Final Lab Visit",NA,26,"Week 26","2014-10-16T12:00","2014-10-16",NA
"CDISCPILOT01","DS","CDISCPILOT01-714-1068",1,"Randomized",NA,"PROTOCOL MILESTONE",0,"Baseline","2013-08-08","2013-08-08",NA
"CDISCPILOT01","DS","CDISCPILOT01-714-1068",2,"Adverse Event",NA,"DISPOSITION EVENT",12,"Week 12","2013-10-16","2013-10-16",NA
"CDISCPILOT01","DS","CDISCPILOT01-714-1068",3,"Final Lab Visit","Final Lab Visit",NA,12,"Week 12","2013-10-16T15:10","2013-10-16",NA
"CDISCPILOT01","DS","CDISCPILOT01-714-1195",1,"Randomized",NA,"PROTOCOL MILESTONE",0,"Baseline","2013-04-26","2013-04-26",NA
"CDISCPILOT01","DS","CDISCPILOT01-714-1195",2,"Protocol Completed",NA,"DISPOSITION EVENT",26,"Week 26","2013-10-23","2013-10-23",NA
"CDISCPILOT01","DS","CDISCPILOT01-714-1195",3,"Final Lab Visit","Final Lab Visit",NA,26,"Week 26","2013-10-23T10:55","2013-10-23",NA
"CDISCPILOT01","DS","CDISCPILOT01-714-1288",1,"Randomized",NA,"PROTOCOL MILESTONE",0,"Baseline","2013-12-04","2013-12-04",NA
"CDISCPILOT01","DS","CDISCPILOT01-714-1288",2,"Protocol Completed",NA,"DISPOSITION EVENT",26,"Week 26","2014-06-17","2014-06-17",NA
"CDISCPILOT01","DS","CDISCPILOT01-714-1288",3,"Final Lab Visit","Final Lab Visit",NA,26,"Week 26","2014-06-17T13:00","2014-06-17",NA
"CDISCPILOT01","DS","CDISCPILOT01-714-1375",1,"Randomized",NA,"PROTOCOL MILESTONE",0,"Baseline","2013-02-26","2013-02-26",NA
"CDISCPILOT01","DS","CDISCPILOT01-714-1375",2,"Protocol Completed",NA,"DISPOSITION EVENT",26,"Week 26","2013-09-07","2013-09-07",NA
"CDISCPILOT01","DS","CDISCPILOT01-714-1375",3,"Final Lab Visit","Final Lab Visit",NA,26,"Week 26","2013-09-07T13:58","2013-09-07",NA
"CDISCPILOT01","DS","CDISCPILOT01-714-1425",1,"Randomized",NA,"PROTOCOL MILESTONE",0,"Baseline","2013-08-15","2013-08-15",NA
"CDISCPILOT01","DS","CDISCPILOT01-714-1425",2,"Sponsor Decision (Study or Patient Discontinued by the Sponsor)",NA,"DISPOSITION EVENT",2,"Week 2","2013-08-22","2013-08-22",NA
"CDISCPILOT01","DS","CDISCPILOT01-714-1425",3,"Final Lab Visit","Final Lab Visit",NA,2,"Week 2","2013-08-22T14:55","2013-08-22",NA
"CDISCPILOT01","DS","CDISCPILOT01-715-1085",1,"Randomized",NA,"PROTOCOL MILESTONE",0,"Baseline","2013-02-16","2013-02-16",NA
"CDISCPILOT01","DS","CDISCPILOT01-715-1085",2,"Protocol Completed",NA,"DISPOSITION EVENT",26,"Week 26","2013-08-18","2013-08-18",NA
"CDISCPILOT01","DS","CDISCPILOT01-715-1085",3,"Final Lab Visit","Final Lab Visit",NA,26,"Week 26","2013-08-18T10:22","2013-08-18",NA
"CDISCPILOT01","DS","CDISCPILOT01-715-1107",1,"Randomized",NA,"PROTOCOL MILESTONE",0,"Baseline","2013-02-26","2013-02-26",NA
"CDISCPILOT01","DS","CDISCPILOT01-715-1107",2,"Adverse Event",NA,"DISPOSITION EVENT",12,"Week 12","2013-05-13","2013-05-13",NA
"CDISCPILOT01","DS","CDISCPILOT01-715-1107",4,"Final Lab Visit","Final Lab Visit",NA,NA,"Retrieval","2013-08-14T09:52","2013-08-14",NA
"CDISCPILOT01","DS","CDISCPILOT01-715-1107",3,"Final Retrieval Visit","Final Retrieval Visit",NA,NA,"Retrieval","2013-08-14","2013-08-14",NA
"CDISCPILOT01","DS","CDISCPILOT01-715-1134",1,"Screen Failure",NA,"DISPOSITION EVENT",1,"Screening 1","2014-04-17","2014-04-17",NA
"CDISCPILOT01","DS","CDISCPILOT01-715-1155",1,"Randomized",NA,"PROTOCOL MILESTONE",0,"Baseline","2013-12-13","2013-12-13",NA
"CDISCPILOT01","DS","CDISCPILOT01-715-1155",2,"Final Lab Visit","Final Lab Visit",NA,4,"Week 4","2014-01-10T08:45","2014-01-10",NA
"CDISCPILOT01","DS","CDISCPILOT01-715-1155",3,"Caregiver Withdrew from Study",NA,"DISPOSITION EVENT",6,"Week 6","2014-04-26","2014-04-26",NA
"CDISCPILOT01","DS","CDISCPILOT01-715-1207",1,"Randomized",NA,"PROTOCOL MILESTONE",0,"Baseline","2012-11-18","2012-11-18",NA
"CDISCPILOT01","DS","CDISCPILOT01-715-1207",2,"Protocol Completed",NA,"DISPOSITION EVENT",26,"Week 26","2013-06-01","2013-06-01",NA
"CDISCPILOT01","DS","CDISCPILOT01-715-1207",3,"Final Lab Visit","Final Lab Visit",NA,26,"Week 26","2013-06-01T09:30","2013-06-01",NA
"CDISCPILOT01","DS","CDISCPILOT01-715-1225",1,"Screen Failure",NA,"DISPOSITION EVENT",1,"Screening 1","2013-01-22","2013-01-22",NA
"CDISCPILOT01","DS","CDISCPILOT01-715-1319",1,"Randomized",NA,"PROTOCOL MILESTONE",0,"Baseline","2013-02-17","2013-02-17",NA
"CDISCPILOT01","DS","CDISCPILOT01-715-1319",2,"Too Much Trouble for Caregiver",NA,"DISPOSITION EVENT",4,"Week 4","2013-03-18","2013-03-18",NA
"CDISCPILOT01","DS","CDISCPILOT01-715-1319",3,"Final Lab Visit","Final Lab Visit",NA,4,"Week 4","2013-03-18T10:28","2013-03-18",NA
"CDISCPILOT01","DS","CDISCPILOT01-715-1321",1,"Randomized",NA,"PROTOCOL MILESTONE",0,"Baseline","2014-02-11","2014-02-11",NA
"CDISCPILOT01","DS","CDISCPILOT01-715-1321",2,"Adverse Event",NA,"DISPOSITION EVENT",12,"Week 12","2014-04-22","2014-04-22",NA
"CDISCPILOT01","DS","CDISCPILOT01-715-1321",3,"Final Lab Visit","Final Lab Visit",NA,12,"Week 12","2014-04-22T11:12","2014-04-22",NA
"CDISCPILOT01","DS","CDISCPILOT01-715-1333",1,"Screen Failure",NA,"DISPOSITION EVENT",1,"Screening 1","2013-06-03","2013-06-03",NA
"CDISCPILOT01","DS","CDISCPILOT01-715-1397",1,"Randomized",NA,"PROTOCOL MILESTONE",0,"Baseline","2013-04-03","2013-04-03",NA
"CDISCPILOT01","DS","CDISCPILOT01-715-1397",2,"Protocol Completed",NA,"DISPOSITION EVENT",26,"Week 26","2013-10-03","2013-10-03",NA
"CDISCPILOT01","DS","CDISCPILOT01-715-1397",3,"Final Lab Visit","Final Lab Visit",NA,26,"Week 26","2013-10-03T10:50","2013-10-03",NA
"CDISCPILOT01","DS","CDISCPILOT01-715-1405",1,"Randomized",NA,"PROTOCOL MILESTONE",0,"Baseline","2013-07-06","2013-07-06",NA
"CDISCPILOT01","DS","CDISCPILOT01-715-1405",2,"Adverse Event",NA,"DISPOSITION EVENT",2,"Week 2","2013-07-13","2013-07-13",NA
"CDISCPILOT01","DS","CDISCPILOT01-715-1405",3,"Final Lab Visit","Final Lab Visit",NA,2,"Week 2","2013-07-13T11:05","2013-07-13",NA
"CDISCPILOT01","DS","CDISCPILOT01-715-1405",4,"Final Retrieval Visit","Final Retrieval Visit",NA,NA,"Retrieval","2014-01-11","2014-01-11",NA
"CDISCPILOT01","DS","CDISCPILOT01-715-1407",1,"Screen Failure",NA,"DISPOSITION EVENT",1,"Screening 1","2012-10-24","2012-10-24",NA
"CDISCPILOT01","DS","CDISCPILOT01-716-1003",1,"Screen Failure",NA,"DISPOSITION EVENT",1,"Screening 1","2014-03-29","2014-03-29",NA
"CDISCPILOT01","DS","CDISCPILOT01-716-1024",1,"Randomized",NA,"PROTOCOL MILESTONE",0,"Baseline","2012-07-09","2012-07-09",NA
"CDISCPILOT01","DS","CDISCPILOT01-716-1024",2,"Protocol Completed",NA,"DISPOSITION EVENT",26,"Week 26","2013-01-20","2013-01-20",NA
"CDISCPILOT01","DS","CDISCPILOT01-716-1024",3,"Final Lab Visit","Final Lab Visit",NA,26,"Week 26","2013-01-20T11:10","2013-01-20",NA
"CDISCPILOT01","DS","CDISCPILOT01-716-1026",1,"Randomized",NA,"PROTOCOL MILESTONE",0,"Baseline","2014-04-02","2014-04-02",NA
"CDISCPILOT01","DS","CDISCPILOT01-716-1026",2,"Protocol Completed",NA,"DISPOSITION EVENT",26,"Week 26","2014-10-16","2014-10-16",NA
"CDISCPILOT01","DS","CDISCPILOT01-716-1026",3,"Final Lab Visit","Final Lab Visit",NA,26,"Week 26","2014-10-16T13:35","2014-10-16",NA
"CDISCPILOT01","DS","CDISCPILOT01-716-1030",1,"Randomized",NA,"PROTOCOL MILESTONE",0,"Baseline","2013-12-28","2013-12-28",NA
"CDISCPILOT01","DS","CDISCPILOT01-716-1030",2,"Pt Kept Removing Patches",NA,"DISPOSITION EVENT",2,"Week 2","2014-01-10","2014-01-10",NA
"CDISCPILOT01","DS","CDISCPILOT01-716-1030",3,"Final Lab Visit","Final Lab Visit",NA,2,"Week 2","2014-01-10T12:30","2014-01-10",NA
"CDISCPILOT01","DS","CDISCPILOT01-716-1044",1,"Randomized",NA,"PROTOCOL MILESTONE",0,"Baseline","2013-04-27","2013-04-27",NA
"CDISCPILOT01","DS","CDISCPILOT01-716-1044",2,"Protocol Completed",NA,"DISPOSITION EVENT",26,"Week 26","2013-11-03","2013-11-03",NA
"CDISCPILOT01","DS","CDISCPILOT01-716-1044",3,"Final Lab Visit","Final Lab Visit",NA,26,"Week 26","2013-11-03T13:10","2013-11-03",NA
"CDISCPILOT01","DS","CDISCPILOT01-716-1061",1,"Screen Failure",NA,"DISPOSITION EVENT",1,"Screening 1","2014-02-14","2014-02-14",NA
"CDISCPILOT01","DS","CDISCPILOT01-716-1063",1,"Randomized",NA,"PROTOCOL MILESTONE",0,"Baseline","2013-05-09","2013-05-09",NA
"CDISCPILOT01","DS","CDISCPILOT01-716-1063",2,"Adverse Event",NA,"DISPOSITION EVENT",16,"Week 16","2013-08-28","2013-08-28",NA
"CDISCPILOT01","DS","CDISCPILOT01-716-1063",3,"Final Lab Visit","Final Lab Visit",NA,16,"Week 16","2013-08-28T15:20","2013-08-28",NA
"CDISCPILOT01","DS","CDISCPILOT01-716-1063",4,"Final Retrieval Visit","Final Retrieval Visit",NA,NA,"Retrieval","2013-11-17","2013-11-17",NA
"CDISCPILOT01","DS","CDISCPILOT01-716-1071",1,"Randomized",NA,"PROTOCOL MILESTONE",0,"Baseline","2013-06-08","2013-06-08",NA
"CDISCPILOT01","DS","CDISCPILOT01-716-1071",2,"Adverse Event",NA,"DISPOSITION EVENT",8,"Week 8","2013-08-01","2013-08-01",NA
"CDISCPILOT01","DS","CDISCPILOT01-716-1071",3,"Final Lab Visit","Final Lab Visit",NA,8,"Week 8","2013-08-01T09:30","2013-08-01",NA
"CDISCPILOT01","DS","CDISCPILOT01-716-1071",4,"Final Retrieval Visit","Final Retrieval Visit",NA,NA,"Retrieval","2013-12-16","2013-12-16",NA
"CDISCPILOT01","DS","CDISCPILOT01-716-1094",1,"Randomized",NA,"PROTOCOL MILESTONE",0,"Baseline","2012-12-19","2012-12-19",NA
"CDISCPILOT01","DS","CDISCPILOT01-716-1094",2,"Adverse Event",NA,"DISPOSITION EVENT",6,"Week 6","2013-01-26","2013-01-26",NA
"CDISCPILOT01","DS","CDISCPILOT01-716-1094",3,"Final Lab Visit","Final Lab Visit",NA,6,"Week 6","2013-01-26T11:20","2013-01-26",NA
"CDISCPILOT01","DS","CDISCPILOT01-716-1094",4,"Final Retrieval Visit","Final Retrieval Visit",NA,NA,"Retrieval","2013-06-22","2013-06-22",NA
"CDISCPILOT01","DS","CDISCPILOT01-716-1103",1,"Randomized",NA,"PROTOCOL MILESTONE",0,"Baseline","2014-03-20","2014-03-20",NA
"CDISCPILOT01","DS","CDISCPILOT01-716-1103",2,"Protocol Completed",NA,"DISPOSITION EVENT",26,"Week 26","2014-09-20","2014-09-20",NA
"CDISCPILOT01","DS","CDISCPILOT01-716-1103",3,"Final Lab Visit","Final Lab Visit",NA,26,"Week 26","2014-09-20T12:10","2014-09-20",NA
"CDISCPILOT01","DS","CDISCPILOT01-716-1108",1,"Randomized",NA,"PROTOCOL MILESTONE",0,"Baseline","2013-02-12","2013-02-12",NA
"CDISCPILOT01","DS","CDISCPILOT01-716-1108",2,"Protocol Completed",NA,"DISPOSITION EVENT",26,"Week 26","2013-08-10","2013-08-10",NA
"CDISCPILOT01","DS","CDISCPILOT01-716-1108",3,"Final Lab Visit","Final Lab Visit",NA,26,"Week 26","2013-08-10T09:55","2013-08-10",NA
"CDISCPILOT01","DS","CDISCPILOT01-716-1151",1,"Randomized",NA,"PROTOCOL MILESTONE",0,"Baseline","2013-02-01","2013-02-01",NA
"CDISCPILOT01","DS","CDISCPILOT01-716-1151",2,"Adverse Event",NA,"DISPOSITION EVENT",16,"Week 16","2013-06-07","2013-06-07",NA
"CDISCPILOT01","DS","CDISCPILOT01-716-1151",3,"Final Lab Visit","Final Lab Visit",NA,16,"Week 16","2013-06-07T11:55","2013-06-07",NA
"CDISCPILOT01","DS","CDISCPILOT01-716-1151",4,"Final Retrieval Visit","Final Retrieval Visit",NA,NA,"Retrieval","2013-08-13","2013-08-13",NA
"CDISCPILOT01","DS","CDISCPILOT01-716-1157",1,"Randomized",NA,"PROTOCOL MILESTONE",0,"Baseline","2013-10-02","2013-10-02",NA
"CDISCPILOT01","DS","CDISCPILOT01-716-1157",2,"Protocol Completed",NA,"DISPOSITION EVENT",26,"Week 26","2014-04-05","2014-04-05",NA
"CDISCPILOT01","DS","CDISCPILOT01-716-1157",3,"Final Lab Visit","Final Lab Visit",NA,26,"Week 26","2014-04-05T11:10","2014-04-05",NA
"CDISCPILOT01","DS","CDISCPILOT01-716-1160",1,"Randomized",NA,"PROTOCOL MILESTONE",0,"Baseline","2013-04-05","2013-04-05",NA
"CDISCPILOT01","DS","CDISCPILOT01-716-1160",2,"Protocol Completed",NA,"DISPOSITION EVENT",26,"Week 26","2013-10-11","2013-10-11",NA
"CDISCPILOT01","DS","CDISCPILOT01-716-1160",3,"Final Lab Visit","Final Lab Visit",NA,26,"Week 26","2013-10-11T13:30","2013-10-11",NA
"CDISCPILOT01","DS","CDISCPILOT01-716-1167",1,"Randomized",NA,"PROTOCOL MILESTONE",0,"Baseline","2012-10-08","2012-10-08",NA
"CDISCPILOT01","DS","CDISCPILOT01-716-1167",2,"Protocol Completed",NA,"DISPOSITION EVENT",26,"Week 26","2013-04-13","2013-04-13",NA
"CDISCPILOT01","DS","CDISCPILOT01-716-1167",3,"Final Lab Visit","Final Lab Visit",NA,26,"Week 26","2013-04-13T11:10","2013-04-13",NA
"CDISCPILOT01","DS","CDISCPILOT01-716-1177",1,"Randomized",NA,"PROTOCOL MILESTONE",0,"Baseline","2014-09-02","2014-09-02",NA
"CDISCPILOT01","DS","CDISCPILOT01-716-1177",2,"Protocol Completed",NA,"DISPOSITION EVENT",26,"Week 26","2015-03-05","2015-03-05",NA
"CDISCPILOT01","DS","CDISCPILOT01-716-1177",3,"Final Lab Visit","Final Lab Visit",NA,26,"Week 26","2015-03-05T14:40","2015-03-05",NA
"CDISCPILOT01","DS","CDISCPILOT01-716-1189",1,"Randomized",NA,"PROTOCOL MILESTONE",0,"Baseline","2012-10-09","2012-10-09",NA
"CDISCPILOT01","DS","CDISCPILOT01-716-1189",2,"Adverse Event",NA,"DISPOSITION EVENT",20,"Week 20","2013-03-03","2013-03-03",NA
"CDISCPILOT01","DS","CDISCPILOT01-716-1189",3,"Final Lab Visit","Final Lab Visit",NA,20,"Week 20","2013-03-03T10:45","2013-03-03",NA
"CDISCPILOT01","DS","CDISCPILOT01-716-1189",4,"Final Retrieval Visit","Final Retrieval Visit",NA,NA,"Retrieval","2013-04-08","2013-04-08",NA
"CDISCPILOT01","DS","CDISCPILOT01-716-1229",1,"Randomized",NA,"PROTOCOL MILESTONE",0,"Baseline","2013-02-20","2013-02-20",NA
"CDISCPILOT01","DS","CDISCPILOT01-716-1229",2,"Adverse Event",NA,"DISPOSITION EVENT",6,"Week 6","2013-04-02","2013-04-02",NA
"CDISCPILOT01","DS","CDISCPILOT01-716-1229",3,"Final Lab Visit","Final Lab Visit",NA,6,"Week 6","2013-04-02T11:15","2013-04-02",NA
"CDISCPILOT01","DS","CDISCPILOT01-716-1244",1,"Screen Failure",NA,"DISPOSITION EVENT",1,"Screening 1","2013-08-15","2013-08-15",NA
"CDISCPILOT01","DS","CDISCPILOT01-716-1298",1,"Randomized",NA,"PROTOCOL MILESTONE",0,"Baseline","2013-04-08","2013-04-08",NA
"CDISCPILOT01","DS","CDISCPILOT01-716-1298",2,"Adverse Event",NA,"DISPOSITION EVENT",12,"Week 12","2013-07-06","2013-07-06",NA
"CDISCPILOT01","DS","CDISCPILOT01-716-1298",3,"Final Lab Visit","Final Lab Visit",NA,12,"Week 12","2013-07-06T10:30","2013-07-06",NA
"CDISCPILOT01","DS","CDISCPILOT01-716-1298",4,"Final Retrieval Visit","Final Retrieval Visit",NA,NA,"Retrieval","2013-10-07","2013-10-07",NA
"CDISCPILOT01","DS","CDISCPILOT01-716-1305",1,"Screen Failure",NA,"DISPOSITION EVENT",1,"Screening 1","2013-08-06","2013-08-06",NA
"CDISCPILOT01","DS","CDISCPILOT01-716-1308",1,"Randomized",NA,"PROTOCOL MILESTONE",0,"Baseline","2013-08-28","2013-08-28",NA
"CDISCPILOT01","DS","CDISCPILOT01-716-1308",2,"Placed in Nursing Home",NA,"DISPOSITION EVENT",6,"Week 6","2013-10-07","2013-10-07",NA
"CDISCPILOT01","DS","CDISCPILOT01-716-1308",3,"Final Lab Visit","Final Lab Visit",NA,6,"Week 6","2013-10-07T15:50","2013-10-07",NA
"CDISCPILOT01","DS","CDISCPILOT01-716-1311",1,"Randomized",NA,"PROTOCOL MILESTONE",0,"Baseline","2014-05-14","2014-05-14",NA
"CDISCPILOT01","DS","CDISCPILOT01-716-1311",2,"Institutionalized",NA,"DISPOSITION EVENT",20,"Week 20","2014-09-30","2014-09-30",NA
"CDISCPILOT01","DS","CDISCPILOT01-716-1311",3,"Final Lab Visit","Final Lab Visit",NA,20,"Week 20","2014-09-30T09:00","2014-09-30",NA
"CDISCPILOT01","DS","CDISCPILOT01-716-1311",4,"Final Retrieval Visit","Final Retrieval Visit",NA,NA,"Retrieval","2014-11-15","2014-11-15",NA
"CDISCPILOT01","DS","CDISCPILOT01-716-1331",1,"Screen Failure",NA,"DISPOSITION EVENT",1,"Screening 1","2013-11-25","2013-11-25",NA
"CDISCPILOT01","DS","CDISCPILOT01-716-1364",1,"Randomized",NA,"PROTOCOL MILESTONE",0,"Baseline","2013-07-04","2013-07-04",NA
"CDISCPILOT01","DS","CDISCPILOT01-716-1364",2,"Protocol Completed",NA,"DISPOSITION EVENT",26,"Week 26","2014-01-09","2014-01-09",NA
"CDISCPILOT01","DS","CDISCPILOT01-716-1364",3,"Final Lab Visit","Final Lab Visit",NA,26,"Week 26","2014-01-09T15:30","2014-01-09",NA
"CDISCPILOT01","DS","CDISCPILOT01-716-1373",1,"Randomized",NA,"PROTOCOL MILESTONE",0,"Baseline","2012-12-14","2012-12-14",NA
"CDISCPILOT01","DS","CDISCPILOT01-716-1373",2,"Adverse Event",NA,"DISPOSITION EVENT",12,"Week 12","2013-02-28","2013-02-28",NA
"CDISCPILOT01","DS","CDISCPILOT01-716-1373",3,"Final Lab Visit","Final Lab Visit",NA,12,"Week 12","2013-02-28T10:23","2013-02-28",NA
"CDISCPILOT01","DS","CDISCPILOT01-716-1418",1,"Randomized",NA,"PROTOCOL MILESTONE",0,"Baseline","2013-05-05","2013-05-05",NA
"CDISCPILOT01","DS","CDISCPILOT01-716-1418",2,"Protocol Completed",NA,"DISPOSITION EVENT",26,"Week 26","2013-11-20","2013-11-20",NA
"CDISCPILOT01","DS","CDISCPILOT01-716-1418",3,"Final Lab Visit","Final Lab Visit",NA,26,"Week 26","2013-11-20T11:44","2013-11-20",NA
"CDISCPILOT01","DS","CDISCPILOT01-716-1441",1,"Randomized",NA,"PROTOCOL MILESTONE",0,"Baseline","2014-01-22","2014-01-22",NA
"CDISCPILOT01","DS","CDISCPILOT01-716-1441",2,"Protocol Completed",NA,"DISPOSITION EVENT",26,"Week 26","2014-07-22","2014-07-22",NA
"CDISCPILOT01","DS","CDISCPILOT01-716-1441",3,"Final Lab Visit","Final Lab Visit",NA,26,"Week 26","2014-07-22T10:00","2014-07-22",NA
"CDISCPILOT01","DS","CDISCPILOT01-716-1447",1,"Randomized",NA,"PROTOCOL MILESTONE",0,"Baseline","2013-12-16","2013-12-16",NA
"CDISCPILOT01","DS","CDISCPILOT01-716-1447",2,"Protocol Completed",NA,"DISPOSITION EVENT",26,"Week 26","2014-06-17","2014-06-17",NA
"CDISCPILOT01","DS","CDISCPILOT01-716-1447",3,"Final Lab Visit","Final Lab Visit",NA,26,"Week 26","2014-06-17T12:00","2014-06-17",NA
"CDISCPILOT01","DS","CDISCPILOT01-717-1004",1,"Randomized",NA,"PROTOCOL MILESTONE",0,"Baseline","2014-01-14","2014-01-14",NA
"CDISCPILOT01","DS","CDISCPILOT01-717-1004",2,"Protocol Completed",NA,"DISPOSITION EVENT",26,"Week 26","2014-07-16","2014-07-16",NA
"CDISCPILOT01","DS","CDISCPILOT01-717-1004",3,"Final Lab Visit","Final Lab Visit",NA,26,"Week 26","2014-07-16T13:21","2014-07-16",NA
"CDISCPILOT01","DS","CDISCPILOT01-717-1109",1,"Randomized",NA,"PROTOCOL MILESTONE",0,"Baseline","2014-01-27","2014-01-27",NA
"CDISCPILOT01","DS","CDISCPILOT01-717-1109",2,"Protocol Completed",NA,"DISPOSITION EVENT",26,"Week 26","2014-07-28","2014-07-28",NA
"CDISCPILOT01","DS","CDISCPILOT01-717-1109",3,"Final Lab Visit","Final Lab Visit",NA,26,"Week 26","2014-07-28T10:53","2014-07-28",NA
"CDISCPILOT01","DS","CDISCPILOT01-717-1174",1,"Randomized",NA,"PROTOCOL MILESTONE",0,"Baseline","2013-01-22","2013-01-22",NA
"CDISCPILOT01","DS","CDISCPILOT01-717-1174",2,"Protocol Completed",NA,"DISPOSITION EVENT",26,"Week 26","2013-07-24","2013-07-24",NA
"CDISCPILOT01","DS","CDISCPILOT01-717-1174",3,"Final Lab Visit","Final Lab Visit",NA,26,"Week 26","2013-07-24T15:15","2013-07-24",NA
"CDISCPILOT01","DS","CDISCPILOT01-717-1201",1,"Randomized",NA,"PROTOCOL MILESTONE",0,"Baseline","2013-12-19","2013-12-19",NA
"CDISCPILOT01","DS","CDISCPILOT01-717-1201",2,"Lack of Efficacy, Patient Caregiver Perception",NA,"DISPOSITION EVENT",8,"Week 8","2014-02-21","2014-02-21",NA
"CDISCPILOT01","DS","CDISCPILOT01-717-1201",3,"Final Lab Visit","Final Lab Visit",NA,8,"Week 8","2014-02-21T11:14","2014-02-21",NA
"CDISCPILOT01","DS","CDISCPILOT01-717-1344",1,"Randomized",NA,"PROTOCOL MILESTONE",0,"Baseline","2014-01-11","2014-01-11",NA
"CDISCPILOT01","DS","CDISCPILOT01-717-1344",2,"Lack of Efficacy, Patient Caregiver Perception",NA,"DISPOSITION EVENT",8,"Week 8","2014-03-14","2014-03-14",NA
"CDISCPILOT01","DS","CDISCPILOT01-717-1344",3,"Final Lab Visit","Final Lab Visit",NA,8,"Week 8","2014-03-14T14:14","2014-03-14",NA
"CDISCPILOT01","DS","CDISCPILOT01-717-1357",1,"Randomized",NA,"PROTOCOL MILESTONE",0,"Baseline","2013-05-01","2013-05-01",NA
"CDISCPILOT01","DS","CDISCPILOT01-717-1357",2,"Sponsor Decision (Study or Patient Discontinued by the Sponsor)",NA,"DISPOSITION EVENT",24,"Week 24","2013-10-20","2013-10-20",NA
"CDISCPILOT01","DS","CDISCPILOT01-717-1357",3,"Final Lab Visit","Final Lab Visit",NA,24,"Week 24","2013-10-20T10:52","2013-10-20",NA
"CDISCPILOT01","DS","CDISCPILOT01-717-1446",1,"Randomized",NA,"PROTOCOL MILESTONE",0,"Baseline","2013-09-01","2013-09-01",NA
"CDISCPILOT01","DS","CDISCPILOT01-717-1446",2,"Protocol Completed",NA,"DISPOSITION EVENT",26,"Week 26","2014-03-04","2014-03-04",NA
"CDISCPILOT01","DS","CDISCPILOT01-717-1446",3,"Final Lab Visit","Final Lab Visit",NA,13,"Unscheduled 13.1","2014-03-17T09:52","2014-03-17",NA
"CDISCPILOT01","DS","CDISCPILOT01-718-1066",1,"Randomized",NA,"PROTOCOL MILESTONE",0,"Baseline","2013-07-07","2013-07-07",NA
"CDISCPILOT01","DS","CDISCPILOT01-718-1066",2,"Adverse Event",NA,"DISPOSITION EVENT",2,"Week 2","2013-07-30","2013-07-30",NA
"CDISCPILOT01","DS","CDISCPILOT01-718-1066",3,"Final Lab Visit","Final Lab Visit",NA,2,"Week 2","2013-07-30T13:30","2013-07-30",NA
"CDISCPILOT01","DS","CDISCPILOT01-718-1079",1,"Randomized",NA,"PROTOCOL MILESTONE",0,"Baseline","2012-09-19","2012-09-19",NA
"CDISCPILOT01","DS","CDISCPILOT01-718-1079",2,"Final Lab Visit","Final Lab Visit",NA,6,"Week 6","2012-10-31T16:30","2012-10-31",NA
"CDISCPILOT01","DS","CDISCPILOT01-718-1079",3,"Adverse Event",NA,"DISPOSITION EVENT",6,"Week 6","2012-11-06","2012-11-06",NA
"CDISCPILOT01","DS","CDISCPILOT01-718-1079",4,"Final Retrieval Visit","Final Retrieval Visit",NA,NA,"Retrieval","2013-03-05","2013-03-05",NA
"CDISCPILOT01","DS","CDISCPILOT01-718-1101",1,"Randomized",NA,"PROTOCOL MILESTONE",0,"Baseline","2013-02-17","2013-02-17",NA
"CDISCPILOT01","DS","CDISCPILOT01-718-1101",2,"Sponsor Decision (Study or Patient Discontinued by the Sponsor)",NA,"DISPOSITION EVENT",24,"Week 24","2013-08-02","2013-08-02",NA
"CDISCPILOT01","DS","CDISCPILOT01-718-1101",3,"Final Lab Visit","Final Lab Visit",NA,24,"Week 24","2013-08-02T11:30","2013-08-02",NA
"CDISCPILOT01","DS","CDISCPILOT01-718-1139",1,"Randomized",NA,"PROTOCOL MILESTONE",0,"Baseline","2013-05-19","2013-05-19",NA
"CDISCPILOT01","DS","CDISCPILOT01-718-1139",2,"Protocol Completed",NA,"DISPOSITION EVENT",26,"Week 26","2013-11-17","2013-11-17",NA
"CDISCPILOT01","DS","CDISCPILOT01-718-1139",3,"Final Lab Visit","Final Lab Visit",NA,26,"Week 26","2013-11-17T10:30","2013-11-17",NA
"CDISCPILOT01","DS","CDISCPILOT01-718-1150",1,"Randomized",NA,"PROTOCOL MILESTONE",0,"Baseline","2013-01-19","2013-01-19",NA
"CDISCPILOT01","DS","CDISCPILOT01-718-1150",2,"Protocol Completed",NA,"DISPOSITION EVENT",26,"Week 26","2013-07-31","2013-07-31",NA
"CDISCPILOT01","DS","CDISCPILOT01-718-1150",3,"Final Lab Visit","Final Lab Visit",NA,26,"Week 26","2013-07-31T14:05","2013-07-31",NA
"CDISCPILOT01","DS","CDISCPILOT01-718-1170",1,"Randomized",NA,"PROTOCOL MILESTONE",0,"Baseline","2013-09-16","2013-09-16",NA
"CDISCPILOT01","DS","CDISCPILOT01-718-1170",2,"Adverse Event",NA,"DISPOSITION EVENT",4,"Week 4","2013-11-03","2013-11-03",NA
"CDISCPILOT01","DS","CDISCPILOT01-718-1170",3,"Final Lab Visit","Final Lab Visit",NA,4,"Week 4","2013-11-03T10:15","2013-11-03",NA
"CDISCPILOT01","DS","CDISCPILOT01-718-1170",4,"Final Retrieval Visit","Final Retrieval Visit",NA,NA,"Retrieval","2014-03-15","2014-03-15",NA
"CDISCPILOT01","DS","CDISCPILOT01-718-1172",1,"Randomized",NA,"PROTOCOL MILESTONE",0,"Baseline","2013-09-21","2013-09-21",NA
"CDISCPILOT01","DS","CDISCPILOT01-718-1172",2,"Patient to Begin Course of Aricept",NA,"DISPOSITION EVENT",12,"Week 12","2013-11-29","2013-11-29",NA
"CDISCPILOT01","DS","CDISCPILOT01-718-1172",3,"Final Lab Visit","Final Lab Visit",NA,12,"Week 12","2013-11-29T15:45","2013-11-29",NA
"CDISCPILOT01","DS","CDISCPILOT01-718-1172",4,"Final Retrieval Visit","Final Retrieval Visit",NA,NA,"Retrieval","2014-03-21","2014-03-21",NA
"CDISCPILOT01","DS","CDISCPILOT01-718-1250",1,"Randomized",NA,"PROTOCOL MILESTONE",0,"Baseline","2013-09-21","2013-09-21",NA
"CDISCPILOT01","DS","CDISCPILOT01-718-1250",2,"Adverse Event",NA,"DISPOSITION EVENT",20,"Week 20","2014-02-08","2014-02-08",NA
"CDISCPILOT01","DS","CDISCPILOT01-718-1250",3,"Final Lab Visit","Final Lab Visit",NA,20,"Week 20","2014-02-08T09:30","2014-02-08",NA
"CDISCPILOT01","DS","CDISCPILOT01-718-1250",4,"Final Retrieval Visit","Final Retrieval Visit",NA,NA,"Retrieval","2014-03-08","2014-03-08",NA
"CDISCPILOT01","DS","CDISCPILOT01-718-1254",1,"Randomized",NA,"PROTOCOL MILESTONE",0,"Baseline","2013-07-10","2013-07-10",NA
"CDISCPILOT01","DS","CDISCPILOT01-718-1254",2,"Protocol Completed",NA,"DISPOSITION EVENT",26,"Week 26","2014-01-09","2014-01-09",NA
"CDISCPILOT01","DS","CDISCPILOT01-718-1254",3,"Final Lab Visit","Final Lab Visit",NA,26,"Week 26","2014-01-09T11:10","2014-01-09",NA
"CDISCPILOT01","DS","CDISCPILOT01-718-1328",1,"Randomized",NA,"PROTOCOL MILESTONE",0,"Baseline","2013-02-01","2013-02-01",NA
"CDISCPILOT01","DS","CDISCPILOT01-718-1328",2,"Patient Unable to Tolerate Dermal Irritation at Patch Site",NA,"DISPOSITION EVENT",12,"Week 12","2013-05-01","2013-05-01",NA
"CDISCPILOT01","DS","CDISCPILOT01-718-1328",3,"Final Lab Visit","Final Lab Visit",NA,12,"Week 12","2013-05-01T15:15","2013-05-01",NA
"CDISCPILOT01","DS","CDISCPILOT01-718-1328",4,"Final Retrieval Visit","Final Retrieval Visit",NA,NA,"Retrieval","2013-07-24","2013-07-24",NA
"CDISCPILOT01","DS","CDISCPILOT01-718-1355",1,"Randomized",NA,"PROTOCOL MILESTONE",0,"Baseline","2013-02-28","2013-02-28",NA
"CDISCPILOT01","DS","CDISCPILOT01-718-1355",2,"Protocol Completed",NA,"DISPOSITION EVENT",26,"Week 26","2013-08-29","2013-08-29",NA
"CDISCPILOT01","DS","CDISCPILOT01-718-1355",3,"Final Lab Visit","Final Lab Visit",NA,26,"Week 26","2013-08-29T14:00","2013-08-29",NA
"CDISCPILOT01","DS","CDISCPILOT01-718-1371",1,"Randomized",NA,"PROTOCOL MILESTONE",0,"Baseline","2013-04-26","2013-04-26",NA
"CDISCPILOT01","DS","CDISCPILOT01-718-1371",2,"Final Lab Visit","Final Lab Visit",NA,12,"Week 12","2013-08-01T14:55","2013-08-01",NA
"CDISCPILOT01","DS","CDISCPILOT01-718-1371",3,"Adverse Event",NA,"DISPOSITION EVENT",12,"Week 12","2013-08-08","2013-08-08",NA
"CDISCPILOT01","DS","CDISCPILOT01-718-1427",1,"Randomized",NA,"PROTOCOL MILESTONE",0,"Baseline","2012-12-17","2012-12-17",NA
"CDISCPILOT01","DS","CDISCPILOT01-718-1427",2,"Lack of Efficacy, Patient Caregiver Perception",NA,"DISPOSITION EVENT",8,"Week 8","2013-02-18","2013-02-18",NA
"CDISCPILOT01","DS","CDISCPILOT01-718-1427",3,"Final Lab Visit","Final Lab Visit",NA,8,"Unscheduled 8.2","2013-02-18T12:30","2013-02-18",NA
"CDISCPILOT01","DS","CDISCPILOT01-718-1427",4,"Final Retrieval Visit","Final Retrieval Visit",NA,NA,"Retrieval","2013-06-03","2013-06-03",NA
